"subjs" "conds" "trial" "choice" "rt"
"1" 1 1 1 0 0.999752885001944
"2" 1 1 2 0 0.725904652261175
"3" 1 1 3 0 0.933053228330798
"4" 1 1 4 0 0.373504160488956
"5" 1 1 5 1 0.436940616642125
"6" 1 1 6 0 0.705565526982536
"7" 1 1 7 1 0.604457737425109
"8" 1 1 8 0 0.414247422359418
"9" 1 1 9 0 0.381273349349853
"10" 1 1 10 1 0.727671784866601
"11" 1 1 11 1 0.887640593728516
"12" 1 1 12 0 0.606994732596912
"13" 1 1 13 1 0.409115277423989
"14" 1 1 14 1 0.650464807712706
"15" 1 1 15 0 0.483617330986308
"16" 1 1 16 1 0.865117072785506
"17" 1 1 17 0 0.546407405856764
"18" 1 1 18 0 0.476466389858862
"19" 1 1 19 0 0.697293353732443
"20" 1 1 20 0 0.448324100277154
"21" 1 1 21 0 0.369785057881381
"22" 1 1 22 1 0.982902477940079
"23" 1 1 23 1 0.562396283734823
"24" 1 1 24 0 0.801257592924638
"25" 1 1 25 0 0.384450543061132
"26" 1 1 26 0 0.583384817235638
"27" 1 1 27 0 0.481266056899214
"28" 1 1 28 0 0.407148113527335
"29" 1 1 29 0 0.694969482204644
"30" 1 1 30 1 0.682138181410031
"31" 1 1 31 1 0.527805340078892
"32" 1 1 32 1 0.526188456236385
"33" 1 1 33 1 0.528177658971632
"34" 1 1 34 1 0.73591665136232
"35" 1 1 35 1 0.717032723539509
"36" 1 1 36 0 0.563385439977283
"37" 1 1 37 0 1.07012217638711
"38" 1 1 38 0 0.386255379922921
"39" 1 1 39 1 0.502678830772871
"40" 1 1 40 1 0.750041147664189
"41" 1 1 41 1 0.58971602330124
"42" 1 1 42 1 0.650160626740428
"43" 1 1 43 1 1.26796300665499
"44" 1 1 44 1 0.600882753517479
"45" 1 1 45 1 0.515396169005893
"46" 1 1 46 0 0.416836128604366
"47" 1 1 47 1 0.667883506506681
"48" 1 1 48 1 1.10738173722103
"49" 1 1 49 1 0.621881265504984
"50" 1 1 50 0 0.742109226979315
"51" 1 1 51 1 0.996738456505118
"52" 1 1 52 0 0.403810330970911
"53" 1 1 53 0 0.843932025184855
"54" 1 1 54 0 0.449907834842335
"55" 1 1 55 0 0.558928147425177
"56" 1 1 56 0 0.374811037483392
"57" 1 1 57 1 0.892434465949889
"58" 1 1 58 0 0.552562977485592
"59" 1 1 59 1 0.581163654901786
"60" 1 1 60 1 0.751062525841408
"61" 1 1 61 0 0.560217110828031
"62" 1 1 62 0 0.462354148205835
"63" 1 1 63 0 0.409890417659655
"64" 1 1 64 1 0.620496806536801
"65" 1 1 65 0 0.420083035480231
"66" 1 1 66 0 0.41188078102353
"67" 1 1 67 1 0.497309326206567
"68" 1 1 68 1 0.58646084058308
"69" 1 1 69 1 0.491643486755667
"70" 1 1 70 1 0.968953077068552
"71" 1 1 71 0 0.385706026676344
"72" 1 1 72 1 0.439383637805935
"73" 1 1 73 0 0.422498153202003
"74" 1 1 74 1 0.81060985436663
"75" 1 1 75 1 0.811329175949562
"76" 1 1 76 1 0.528148036256898
"77" 1 1 77 0 0.391411102207378
"78" 1 1 78 0 0.389031271237414
"79" 1 1 79 0 0.392351510402281
"80" 1 1 80 1 0.604978773725219
"81" 1 1 81 1 0.498678846018156
"82" 1 1 82 0 0.423234563335776
"83" 1 1 83 1 0.521848305023508
"84" 1 1 84 0 0.431075943112141
"85" 1 1 85 0 0.492785080942791
"86" 1 1 86 0 0.421063227898208
"87" 1 1 87 0 0.432233304859139
"88" 1 1 88 1 0.470488696632441
"89" 1 1 89 0 0.8159850936695
"90" 1 1 90 1 0.752864501258824
"91" 1 1 91 0 0.405020670371829
"92" 1 1 92 1 0.489143284235848
"93" 1 1 93 0 0.423085241646739
"94" 1 1 94 0 0.511287691075355
"95" 1 1 95 1 0.563517694821116
"96" 1 1 96 1 0.547796816524118
"97" 1 1 97 0 0.880750470209634
"98" 1 1 98 0 0.373413708782755
"99" 1 1 99 0 0.39978192658606
"100" 1 1 100 0 0.390465237618191
"101" 1 1 101 0 0.648339609291172
"102" 1 1 102 0 0.379923986357637
"103" 1 1 103 0 0.401266518794699
"104" 1 1 104 1 0.471957561677787
"105" 1 1 105 1 1.01157562270341
"106" 1 1 106 0 0.373741636915365
"107" 1 1 107 0 0.364779864662094
"108" 1 1 108 0 0.405928013969446
"109" 1 1 109 0 0.367874787894078
"110" 1 1 110 1 0.651205268499441
"111" 1 1 111 0 0.43247869799519
"112" 1 1 112 1 0.677621723821154
"113" 1 1 113 1 0.730960551774129
"114" 1 1 114 0 0.435093671600102
"115" 1 1 115 1 0.625403488321463
"116" 1 1 116 1 0.569536902438616
"117" 1 1 117 1 0.460227050048299
"118" 1 1 118 1 0.665585770474048
"119" 1 1 119 1 0.58717164694937
"120" 1 1 120 1 0.416934759057593
"121" 1 1 121 0 0.928286296955077
"122" 1 1 122 0 0.394548892657738
"123" 1 1 123 0 0.406947050090414
"124" 1 1 124 0 0.407894758929033
"125" 1 1 125 0 0.682184078824241
"126" 1 1 126 1 0.871597774890019
"127" 1 1 127 0 0.366482317922404
"128" 1 1 128 0 0.36468190135085
"129" 1 1 129 0 0.377898571156664
"130" 1 1 130 0 0.447856642875355
"131" 1 1 131 0 0.527116516180337
"132" 1 1 132 1 0.81196435398981
"133" 1 1 133 1 0.447561412058305
"134" 1 1 134 1 0.548496106940555
"135" 1 1 135 0 0.407285873972345
"136" 1 1 136 1 0.533517360596918
"137" 1 1 137 0 0.367067635861691
"138" 1 1 138 1 0.462302901207469
"139" 1 1 139 0 1.46470066404389
"140" 1 1 140 0 0.519023626460927
"141" 1 1 141 0 0.384288889025338
"142" 1 1 142 1 0.713159383753547
"143" 1 1 143 0 0.421066595337121
"144" 1 1 144 1 0.630553893456701
"145" 1 1 145 0 0.543544842653209
"146" 1 1 146 0 0.416094391504768
"147" 1 1 147 0 0.425087933087954
"148" 1 1 148 1 1.05804562590271
"149" 1 1 149 0 0.365996068657842
"150" 1 1 150 1 0.47048095252458
"151" 1 1 151 0 0.437800359513611
"152" 1 1 152 0 0.42529019266949
"153" 1 1 153 1 0.6863983745242
"154" 1 1 154 0 0.403103709922871
"155" 1 1 155 0 0.364254364362452
"156" 1 1 156 0 0.391400809559738
"157" 1 1 157 1 0.482217433163198
"158" 1 1 158 0 0.446295686720405
"159" 1 1 159 1 0.609597799592419
"160" 1 1 160 1 1.00032613936369
"161" 1 1 161 1 0.472225161828799
"162" 1 1 162 0 0.489026071779896
"163" 1 1 163 1 0.709887815703871
"164" 1 1 164 1 0.784039038904943
"165" 1 1 165 1 0.574286924188724
"166" 1 1 166 0 0.375535656964406
"167" 1 1 167 0 0.573644821355818
"168" 1 1 168 1 0.516357446194161
"169" 1 1 169 0 0.413936431275914
"170" 1 1 170 1 0.570700156332459
"171" 1 1 171 0 0.512063303255942
"172" 1 1 172 0 0.541421253957087
"173" 1 1 173 0 0.426357604230056
"174" 1 1 174 1 0.507037473192439
"175" 1 1 175 0 0.424085256383754
"176" 1 1 176 0 0.688838380298112
"177" 1 1 177 1 0.883816101713339
"178" 1 1 178 0 0.398578564580763
"179" 1 1 179 0 0.431038018458057
"180" 1 1 180 1 1.03158512789034
"181" 1 1 181 0 0.594618186797947
"182" 1 1 182 0 0.630175982046872
"183" 1 1 183 0 0.502430582700297
"184" 1 1 184 0 0.497122207415523
"185" 1 1 185 0 0.395468000885332
"186" 1 1 186 1 0.586961448164424
"187" 1 1 187 0 0.510566072930116
"188" 1 1 188 0 0.410762424856424
"189" 1 1 189 0 0.392022506309208
"190" 1 1 190 1 0.527041842839914
"191" 1 1 191 1 0.459415683009662
"192" 1 1 192 0 0.450194750282215
"193" 1 1 193 0 0.40648302682233
"194" 1 1 194 1 0.571048606752418
"195" 1 1 195 0 0.444711970365141
"196" 1 1 196 0 0.432716473836685
"197" 1 1 197 0 0.449436970538693
"198" 1 1 198 1 0.523313808321487
"199" 1 1 199 0 0.372728743004147
"200" 1 1 200 0 0.632815797222545
"201" 1 2 1 1 1.24445714324736
"202" 1 2 2 0 1.08273480373714
"203" 1 2 3 0 1.89264840317145
"204" 1 2 4 0 1.92780705532874
"205" 1 2 5 1 1.60971397521324
"206" 1 2 6 1 3.10848570713005
"207" 1 2 7 1 1.82495982438698
"208" 1 2 8 1 0.705831150951795
"209" 1 2 9 0 1.3953700864038
"210" 1 2 10 1 5.56583930941694
"211" 1 2 11 1 3.09012287070788
"212" 1 2 12 1 1.23420238772407
"213" 1 2 13 1 2.82239765138575
"214" 1 2 14 0 0.437324273345992
"215" 1 2 15 1 4.65017665064661
"216" 1 2 16 0 0.489248034740333
"217" 1 2 17 1 1.30014214862022
"218" 1 2 18 0 0.604068609349662
"219" 1 2 19 0 0.895960428531049
"220" 1 2 20 0 0.731820061654085
"221" 1 2 21 0 0.747283358375076
"222" 1 2 22 1 2.44576042120275
"223" 1 2 23 1 3.18263954273262
"224" 1 2 24 0 1.27588599754521
"225" 1 2 25 0 1.64507905214513
"226" 1 2 26 1 1.22908442763844
"227" 1 2 27 1 1.83920700303372
"228" 1 2 28 0 0.889679537072079
"229" 1 2 29 0 0.695353824601509
"230" 1 2 30 1 1.55682956830692
"231" 1 2 31 0 0.530213345093886
"232" 1 2 32 1 1.11124925682577
"233" 1 2 33 1 1.30559333083965
"234" 1 2 34 0 0.626544438614277
"235" 1 2 35 1 1.83641079890053
"236" 1 2 36 1 0.676462670131587
"237" 1 2 37 0 2.28788522801478
"238" 1 2 38 1 1.77678677364904
"239" 1 2 39 1 0.990765023953514
"240" 1 2 40 1 1.90225354150683
"241" 1 2 41 1 1.25465820038551
"242" 1 2 42 1 2.13623820863082
"243" 1 2 43 0 1.15156783225713
"244" 1 2 44 1 2.91626943472261
"245" 1 2 45 1 2.6232004348
"246" 1 2 46 0 0.839402968315408
"247" 1 2 47 1 1.62970469600032
"248" 1 2 48 1 1.5289251453185
"249" 1 2 49 0 0.704511235584272
"250" 1 2 50 1 1.69576938300044
"251" 1 2 51 1 2.16970351308002
"252" 1 2 52 1 2.00588026815676
"253" 1 2 53 1 0.985850233864971
"254" 1 2 54 1 4.40898040384334
"255" 1 2 55 0 0.650830332778394
"256" 1 2 56 1 2.81513949969178
"257" 1 2 57 0 1.19823506295541
"258" 1 2 58 1 1.99789475951623
"259" 1 2 59 1 1.19015766308992
"260" 1 2 60 1 3.18627152099693
"261" 1 2 61 1 1.21462207390484
"262" 1 2 62 0 0.527135296958033
"263" 1 2 63 1 3.93623915842315
"264" 1 2 64 1 5.07107577144611
"265" 1 2 65 1 1.92856670504529
"266" 1 2 66 1 1.9679151043375
"267" 1 2 67 0 2.58222952685179
"268" 1 2 68 1 2.93807818333851
"269" 1 2 69 1 2.81820634978567
"270" 1 2 70 1 1.79903831195366
"271" 1 2 71 1 2.71161375852954
"272" 1 2 72 0 1.01019262521155
"273" 1 2 73 1 2.40668789364537
"274" 1 2 74 1 3.62227590671508
"275" 1 2 75 1 0.68854595533479
"276" 1 2 76 0 1.79643608013308
"277" 1 2 77 1 1.17448885127204
"278" 1 2 78 0 0.541958653619513
"279" 1 2 79 0 0.781973045533523
"280" 1 2 80 0 0.871063271766529
"281" 1 2 81 1 2.15596827479359
"282" 1 2 82 0 1.66059645150928
"283" 1 2 83 1 2.90632681295811
"284" 1 2 84 1 3.33626834983984
"285" 1 2 85 1 2.24724857220775
"286" 1 2 86 1 1.48356910639722
"287" 1 2 87 1 1.96973496894632
"288" 1 2 88 1 1.07922182936477
"289" 1 2 89 0 0.586739292733371
"290" 1 2 90 0 2.89233060845756
"291" 1 2 91 0 0.530886553782737
"292" 1 2 92 1 1.75717077853112
"293" 1 2 93 1 2.24330153933796
"294" 1 2 94 1 3.18737150101573
"295" 1 2 95 1 1.09324942838377
"296" 1 2 96 0 0.950001018004026
"297" 1 2 97 1 0.807914211136987
"298" 1 2 98 1 2.54174721794017
"299" 1 2 99 1 1.05943967904174
"300" 1 2 100 0 0.737127132697497
"301" 1 2 101 1 2.34888111087144
"302" 1 2 102 0 1.06940198711469
"303" 1 2 103 0 0.508950544686522
"304" 1 2 104 1 5.13529119725805
"305" 1 2 105 0 1.03372037960053
"306" 1 2 106 0 0.470536834259285
"307" 1 2 107 1 1.96241169669689
"308" 1 2 108 0 1.13531251154491
"309" 1 2 109 1 1.91445015383465
"310" 1 2 110 0 0.695649070468033
"311" 1 2 111 0 0.711000085128471
"312" 1 2 112 1 1.80139383218298
"313" 1 2 113 1 2.75849151359336
"314" 1 2 114 1 1.32909433563403
"315" 1 2 115 1 1.44962180620502
"316" 1 2 116 0 0.498632052229485
"317" 1 2 117 0 2.16020268024388
"318" 1 2 118 0 0.492345298788976
"319" 1 2 119 1 2.70730946887075
"320" 1 2 120 1 3.91931572807115
"321" 1 2 121 1 1.51823044194328
"322" 1 2 122 0 1.82382697280077
"323" 1 2 123 1 1.65004145301692
"324" 1 2 124 0 0.583000142115401
"325" 1 2 125 0 0.699297716309316
"326" 1 2 126 0 0.553710339973215
"327" 1 2 127 0 0.730377055534627
"328" 1 2 128 0 0.62361704022903
"329" 1 2 129 1 1.23435657089972
"330" 1 2 130 1 2.78508079630276
"331" 1 2 131 1 2.65760486736451
"332" 1 2 132 1 3.8517647818462
"333" 1 2 133 1 2.47719735149341
"334" 1 2 134 1 5.076857113668
"335" 1 2 135 1 0.900102767726174
"336" 1 2 136 1 1.92250254795095
"337" 1 2 137 1 1.18027306007105
"338" 1 2 138 1 2.15481803064444
"339" 1 2 139 0 0.55270166078466
"340" 1 2 140 1 1.6200246198338
"341" 1 2 141 0 1.18978162462404
"342" 1 2 142 0 0.445882989870617
"343" 1 2 143 0 2.52644997666078
"344" 1 2 144 1 3.70832202447066
"345" 1 2 145 1 2.11369055933971
"346" 1 2 146 0 0.812933150147321
"347" 1 2 147 1 1.11184028146719
"348" 1 2 148 1 2.6941324590391
"349" 1 2 149 0 0.485520029529231
"350" 1 2 150 1 1.2026571570572
"351" 1 2 151 1 1.65863250514027
"352" 1 2 152 1 2.8507623015109
"353" 1 2 153 1 1.51787556039495
"354" 1 2 154 1 1.73102919121692
"355" 1 2 155 0 0.585661442735232
"356" 1 2 156 1 1.09249076950527
"357" 1 2 157 1 2.15398795996094
"358" 1 2 158 0 1.50770636108168
"359" 1 2 159 0 0.516689770409372
"360" 1 2 160 1 2.46953287406452
"361" 1 2 161 1 3.35891218076576
"362" 1 2 162 1 1.23520364193665
"363" 1 2 163 1 1.90443908617948
"364" 1 2 164 1 1.98576571918046
"365" 1 2 165 0 3.03473441729834
"366" 1 2 166 0 3.97474872295279
"367" 1 2 167 0 0.87680056816875
"368" 1 2 168 1 0.854092456764542
"369" 1 2 169 1 1.39030578517704
"370" 1 2 170 1 1.4966046643036
"371" 1 2 171 0 0.985771263283212
"372" 1 2 172 1 1.33305395130697
"373" 1 2 173 0 0.813132866519736
"374" 1 2 174 0 1.42481095037842
"375" 1 2 175 0 0.559802054265281
"376" 1 2 176 0 0.908770137283253
"377" 1 2 177 0 1.58692115518823
"378" 1 2 178 0 0.786371041083476
"379" 1 2 179 0 0.650223185133655
"380" 1 2 180 0 0.43878072876879
"381" 1 2 181 1 1.15359062821651
"382" 1 2 182 0 3.82628907788033
"383" 1 2 183 1 3.18392410087958
"384" 1 2 184 0 0.562669692218769
"385" 1 2 185 0 0.622474686166737
"386" 1 2 186 0 1.37575610454008
"387" 1 2 187 0 2.3402310422929
"388" 1 2 188 1 1.80610021412373
"389" 1 2 189 0 0.490713789553382
"390" 1 2 190 1 1.63744741839077
"391" 1 2 191 1 1.42631973655219
"392" 1 2 192 0 3.61786776616517
"393" 1 2 193 1 1.93243059497117
"394" 1 2 194 0 0.503454629187007
"395" 1 2 195 1 2.59377508636285
"396" 1 2 196 0 0.721264513045317
"397" 1 2 197 0 0.929296672137454
"398" 1 2 198 0 0.552309108814923
"399" 1 2 199 0 0.581907578211045
"400" 1 2 200 1 1.91522183051961
"401" 1 3 1 1 3.23158547984273
"402" 1 3 2 0 1.38386341252923
"403" 1 3 3 1 2.44693863924034
"404" 1 3 4 0 2.11311691740574
"405" 1 3 5 1 4.50433188819583
"406" 1 3 6 0 2.36033381248498
"407" 1 3 7 1 2.12151305722119
"408" 1 3 8 0 0.973039654466091
"409" 1 3 9 1 1.36121479171957
"410" 1 3 10 0 1.80513711579097
"411" 1 3 11 1 3.97339839330874
"412" 1 3 12 0 0.650824658992467
"413" 1 3 13 0 3.25126398115931
"414" 1 3 14 1 2.61405031225085
"415" 1 3 15 1 2.29115389372245
"416" 1 3 16 1 3.42494470926398
"417" 1 3 17 0 0.885504518818576
"418" 1 3 18 1 6.14760172434058
"419" 1 3 19 0 3.72331911201216
"420" 1 3 20 1 1.23828127617179
"421" 1 3 21 0 0.661858705926919
"422" 1 3 22 0 0.427609282921068
"423" 1 3 23 0 0.814942655383144
"424" 1 3 24 0 4.47050293473946
"425" 1 3 25 1 1.58479381103953
"426" 1 3 26 1 3.96479555041529
"427" 1 3 27 0 2.90763050196972
"428" 1 3 28 1 8.21445561997336
"429" 1 3 29 0 3.56701739016315
"430" 1 3 30 0 0.801959735006327
"431" 1 3 31 1 3.15303948059818
"432" 1 3 32 0 0.496646818686742
"433" 1 3 33 0 1.84541436039028
"434" 1 3 34 0 2.88538461462292
"435" 1 3 35 1 3.08631804053346
"436" 1 3 36 1 3.74275040442403
"437" 1 3 37 0 1.017203613983
"438" 1 3 38 1 1.54015195755381
"439" 1 3 39 0 1.04599292395194
"440" 1 3 40 0 0.439160698091378
"441" 1 3 41 0 2.54647639751597
"442" 1 3 42 1 6.38158281898266
"443" 1 3 43 1 1.6555552127203
"444" 1 3 44 0 1.8232230374827
"445" 1 3 45 1 2.68599259699951
"446" 1 3 46 0 2.67238521009404
"447" 1 3 47 1 1.89963601777935
"448" 1 3 48 0 0.895026908092666
"449" 1 3 49 0 4.27546634512511
"450" 1 3 50 0 3.19404296975303
"451" 1 3 51 0 1.0116479320887
"452" 1 3 52 0 2.3061089026772
"453" 1 3 53 1 3.98224967534235
"454" 1 3 54 0 8.16976657849923
"455" 1 3 55 0 0.480126242107246
"456" 1 3 56 0 0.624448243298335
"457" 1 3 57 0 1.09564172376529
"458" 1 3 58 0 1.5177311085565
"459" 1 3 59 0 3.81590160634159
"460" 1 3 60 0 6.75484444295708
"461" 1 3 61 1 5.05115186690725
"462" 1 3 62 0 1.32309713004809
"463" 1 3 63 0 1.32360670387605
"464" 1 3 64 1 1.9555532713565
"465" 1 3 65 0 0.925879641775275
"466" 1 3 66 1 1.5870796267204
"467" 1 3 67 0 0.729327210477786
"468" 1 3 68 0 1.66675866452488
"469" 1 3 69 NA NA
"470" 1 3 70 0 0.979634599300101
"471" 1 3 71 1 1.85072098536044
"472" 1 3 72 0 8.32065959989722
"473" 1 3 73 1 1.93872267263592
"474" 1 3 74 1 3.17385793746612
"475" 1 3 75 0 2.23691565902112
"476" 1 3 76 0 3.06122066479316
"477" 1 3 77 0 5.0370090013023
"478" 1 3 78 0 2.44269245212665
"479" 1 3 79 0 0.455572752655251
"480" 1 3 80 0 5.07338186799386
"481" 1 3 81 0 3.05200761461165
"482" 1 3 82 0 4.78087768158154
"483" 1 3 83 0 0.437183526141103
"484" 1 3 84 0 0.687515729431063
"485" 1 3 85 0 3.37080617684778
"486" 1 3 86 1 1.14110299277958
"487" 1 3 87 0 1.06645761163393
"488" 1 3 88 0 0.772659184445161
"489" 1 3 89 1 5.17995751237823
"490" 1 3 90 0 3.8525128205372
"491" 1 3 91 0 0.598179450933589
"492" 1 3 92 0 0.582740902805701
"493" 1 3 93 0 0.531896575091407
"494" 1 3 94 0 0.467069468844216
"495" 1 3 95 0 1.70997034703335
"496" 1 3 96 0 0.53607829887257
"497" 1 3 97 0 3.0468719870355
"498" 1 3 98 0 0.547825197493425
"499" 1 3 99 0 4.14633229141007
"500" 1 3 100 0 0.476565028409706
"501" 1 3 101 0 0.886477414510911
"502" 1 3 102 0 3.30431225992111
"503" 1 3 103 NA NA
"504" 1 3 104 0 1.19197367944801
"505" 1 3 105 NA NA
"506" 1 3 106 0 1.36161211166019
"507" 1 3 107 0 1.74304096426
"508" 1 3 108 0 0.85112663542293
"509" 1 3 109 0 0.783684728793101
"510" 1 3 110 1 4.19727189583448
"511" 1 3 111 1 0.844079079016578
"512" 1 3 112 0 6.05366027899948
"513" 1 3 113 0 1.03918527820311
"514" 1 3 114 0 0.460105928069912
"515" 1 3 115 0 4.88763908765349
"516" 1 3 116 1 2.54340669084876
"517" 1 3 117 0 2.36708444497338
"518" 1 3 118 0 0.602298273269087
"519" 1 3 119 0 0.771189635063754
"520" 1 3 120 1 1.30735303905862
"521" 1 3 121 0 1.91902135614073
"522" 1 3 122 1 2.69515433504409
"523" 1 3 123 1 1.33115322530153
"524" 1 3 124 0 1.87335644195927
"525" 1 3 125 1 1.70291942536458
"526" 1 3 126 1 3.40987987020332
"527" 1 3 127 0 0.546220763217192
"528" 1 3 128 0 3.0519695065082
"529" 1 3 129 0 1.95682492747111
"530" 1 3 130 0 0.477119981884723
"531" 1 3 131 0 2.7706712529622
"532" 1 3 132 0 2.30180108398222
"533" 1 3 133 0 1.06069419013825
"534" 1 3 134 0 0.41631580258254
"535" 1 3 135 1 3.22448653715407
"536" 1 3 136 0 0.457742133705178
"537" 1 3 137 0 1.80501224753167
"538" 1 3 138 0 0.706639407843584
"539" 1 3 139 1 3.85620113108237
"540" 1 3 140 1 3.51411855170922
"541" 1 3 141 1 5.06354634126276
"542" 1 3 142 1 3.33573705771263
"543" 1 3 143 1 0.874165500774747
"544" 1 3 144 1 3.15313509173552
"545" 1 3 145 1 1.35115176676703
"546" 1 3 146 1 3.20385344589385
"547" 1 3 147 1 2.3537343819472
"548" 1 3 148 0 2.48692082554125
"549" 1 3 149 0 0.625655020131729
"550" 1 3 150 0 2.07780694707599
"551" 1 3 151 1 2.89909831749392
"552" 1 3 152 0 4.29489237023122
"553" 1 3 153 0 0.617718280019937
"554" 1 3 154 0 0.661891930490034
"555" 1 3 155 1 5.08014030947257
"556" 1 3 156 0 0.640938828589162
"557" 1 3 157 0 0.562755518023157
"558" 1 3 158 0 0.747455570586026
"559" 1 3 159 1 2.57551151556871
"560" 1 3 160 0 3.4177965713907
"561" 1 3 161 1 1.13277832062123
"562" 1 3 162 0 1.78309631295083
"563" 1 3 163 1 1.17881100871786
"564" 1 3 164 0 4.07785459765652
"565" 1 3 165 1 1.15970837587165
"566" 1 3 166 0 3.0423109773912
"567" 1 3 167 0 0.706771947937785
"568" 1 3 168 0 4.07785157381464
"569" 1 3 169 1 2.54470527308318
"570" 1 3 170 0 2.00226461796393
"571" 1 3 171 1 3.48728110754327
"572" 1 3 172 1 2.54044343813066
"573" 1 3 173 1 3.2953260960998
"574" 1 3 174 0 0.622083733256441
"575" 1 3 175 1 1.8918733230338
"576" 1 3 176 0 1.52330876886589
"577" 1 3 177 0 2.23348149915482
"578" 1 3 178 1 1.18189192020451
"579" 1 3 179 0 0.460196642054012
"580" 1 3 180 0 0.665546936092665
"581" 1 3 181 0 1.82743746054894
"582" 1 3 182 0 1.22615957716876
"583" 1 3 183 1 2.20785935516166
"584" 1 3 184 1 2.52290963723254
"585" 1 3 185 0 0.503602523791138
"586" 1 3 186 0 2.54989013528312
"587" 1 3 187 0 0.853680025662528
"588" 1 3 188 0 0.929479556482285
"589" 1 3 189 0 1.73474765072134
"590" 1 3 190 1 3.31120239231782
"591" 1 3 191 0 1.21724192468962
"592" 1 3 192 0 0.554563214346301
"593" 1 3 193 0 0.792360955888173
"594" 1 3 194 1 2.17634120199503
"595" 1 3 195 0 0.367731899108272
"596" 1 3 196 0 0.654044317380991
"597" 1 3 197 0 4.34108807221893
"598" 1 3 198 1 4.43967429992021
"599" 1 3 199 0 1.58040501250629
"600" 1 3 200 0 1.34696361539932
"601" 2 1 1 0 0.510250126739498
"602" 2 1 2 0 0.532134905769723
"603" 2 1 3 0 1.06154009381891
"604" 2 1 4 0 0.501345658264356
"605" 2 1 5 0 0.520751242698403
"606" 2 1 6 1 1.03322309681191
"607" 2 1 7 0 0.503851163954707
"608" 2 1 8 0 0.476632727504708
"609" 2 1 9 0 0.622560021048877
"610" 2 1 10 1 0.98409506990714
"611" 2 1 11 0 0.484294777047122
"612" 2 1 12 1 0.593573958639056
"613" 2 1 13 0 0.492439350902569
"614" 2 1 14 0 0.57030328491726
"615" 2 1 15 0 1.12473532036273
"616" 2 1 16 0 0.512557622118155
"617" 2 1 17 0 0.637874904601136
"618" 2 1 18 0 0.756983758026501
"619" 2 1 19 0 0.60110781843774
"620" 2 1 20 0 0.515256358314073
"621" 2 1 21 0 0.53408753223042
"622" 2 1 22 0 0.704365084802732
"623" 2 1 23 0 0.495577586714411
"624" 2 1 24 0 0.517626949029276
"625" 2 1 25 1 0.570638885550201
"626" 2 1 26 0 0.482986420794856
"627" 2 1 27 0 0.760189540339867
"628" 2 1 28 0 0.50156977095129
"629" 2 1 29 0 0.864529309600592
"630" 2 1 30 1 0.674617956243223
"631" 2 1 31 0 0.814220405689906
"632" 2 1 32 0 0.892890909571433
"633" 2 1 33 0 0.561985431550303
"634" 2 1 34 0 0.479453565737233
"635" 2 1 35 1 0.590863353041699
"636" 2 1 36 1 1.05470189914061
"637" 2 1 37 0 0.534142204798525
"638" 2 1 38 0 0.84679410303128
"639" 2 1 39 1 1.00561323026381
"640" 2 1 40 0 0.527203382872045
"641" 2 1 41 0 0.5992775764158
"642" 2 1 42 0 0.520738121721428
"643" 2 1 43 0 0.54408186329389
"644" 2 1 44 1 0.675217909592437
"645" 2 1 45 0 0.523893387342105
"646" 2 1 46 0 0.698281267573824
"647" 2 1 47 0 1.74947499331483
"648" 2 1 48 0 0.547368100659922
"649" 2 1 49 0 0.66630304966541
"650" 2 1 50 1 0.842703874877654
"651" 2 1 51 0 0.610954175510444
"652" 2 1 52 1 0.846704051911598
"653" 2 1 53 1 0.600222885917174
"654" 2 1 54 0 0.856667343403911
"655" 2 1 55 1 0.61820935823
"656" 2 1 56 1 1.13655275016092
"657" 2 1 57 1 0.786355861335062
"658" 2 1 58 1 0.874575938469498
"659" 2 1 59 0 0.540043250709074
"660" 2 1 60 0 1.04702496182988
"661" 2 1 61 0 0.68579204396694
"662" 2 1 62 0 0.862038112581475
"663" 2 1 63 0 0.476655707056867
"664" 2 1 64 1 0.876425966945477
"665" 2 1 65 0 0.60809689732315
"666" 2 1 66 0 0.520112870957237
"667" 2 1 67 1 1.34020522986259
"668" 2 1 68 0 0.549804408460856
"669" 2 1 69 0 1.24992560563399
"670" 2 1 70 0 0.608431220571045
"671" 2 1 71 1 1.2490847236577
"672" 2 1 72 0 0.542341076639248
"673" 2 1 73 0 0.630047524020542
"674" 2 1 74 1 0.741984892221633
"675" 2 1 75 1 0.647481129349442
"676" 2 1 76 1 0.690333449320169
"677" 2 1 77 0 0.57810913298442
"678" 2 1 78 1 0.617315528684761
"679" 2 1 79 1 0.712443107176339
"680" 2 1 80 0 0.548080322951544
"681" 2 1 81 1 1.05555154042225
"682" 2 1 82 0 0.671328623351408
"683" 2 1 83 1 0.973264114044141
"684" 2 1 84 0 0.491502409914043
"685" 2 1 85 1 0.92319643089571
"686" 2 1 86 0 0.509104735377245
"687" 2 1 87 1 0.791925851857057
"688" 2 1 88 0 0.605113013674971
"689" 2 1 89 1 1.53090251373989
"690" 2 1 90 0 0.565374241139041
"691" 2 1 91 0 0.485512248554267
"692" 2 1 92 0 0.548948907383252
"693" 2 1 93 0 0.501345705932239
"694" 2 1 94 1 0.77428375460906
"695" 2 1 95 0 0.551616452910937
"696" 2 1 96 0 1.065714724852
"697" 2 1 97 0 0.624247724688612
"698" 2 1 98 1 0.592450277798576
"699" 2 1 99 0 0.530605172798038
"700" 2 1 100 0 1.0263032190844
"701" 2 1 101 0 0.678312297599623
"702" 2 1 102 0 0.489190485175699
"703" 2 1 103 0 0.71426737271063
"704" 2 1 104 0 0.619415371290641
"705" 2 1 105 1 0.711196780986386
"706" 2 1 106 1 0.607866819743533
"707" 2 1 107 0 0.567236009018961
"708" 2 1 108 0 0.528168319242774
"709" 2 1 109 0 0.790694092122838
"710" 2 1 110 0 0.565961299240589
"711" 2 1 111 0 0.58110264612874
"712" 2 1 112 0 0.802345053795027
"713" 2 1 113 0 0.79463342869794
"714" 2 1 114 0 0.605149109706981
"715" 2 1 115 0 0.762691973258508
"716" 2 1 116 0 0.526271984311053
"717" 2 1 117 0 0.510734950914746
"718" 2 1 118 0 0.654668414784828
"719" 2 1 119 0 0.552716059310129
"720" 2 1 120 0 0.725472534578061
"721" 2 1 121 1 0.984020981845679
"722" 2 1 122 0 0.531817482072162
"723" 2 1 123 1 0.610417523978511
"724" 2 1 124 1 1.01076704993122
"725" 2 1 125 0 0.509699160843855
"726" 2 1 126 1 0.881628071313957
"727" 2 1 127 0 1.4082633529033
"728" 2 1 128 1 0.876397313317517
"729" 2 1 129 0 0.545064782982226
"730" 2 1 130 1 1.79892768514529
"731" 2 1 131 0 0.878362699398072
"732" 2 1 132 0 0.594510307811899
"733" 2 1 133 0 0.502190997063182
"734" 2 1 134 0 0.5695111604298
"735" 2 1 135 0 0.524089808745543
"736" 2 1 136 0 0.666332173116505
"737" 2 1 137 0 0.510966375628952
"738" 2 1 138 1 0.591830020628637
"739" 2 1 139 1 1.53292742594611
"740" 2 1 140 0 0.605534278551582
"741" 2 1 141 1 0.841060866863234
"742" 2 1 142 1 0.751862759997137
"743" 2 1 143 1 1.0362748411207
"744" 2 1 144 0 1.11175447371835
"745" 2 1 145 0 0.510692729135277
"746" 2 1 146 0 0.619623643780826
"747" 2 1 147 0 0.592614442656282
"748" 2 1 148 0 0.640541985834483
"749" 2 1 149 0 0.609935147944139
"750" 2 1 150 0 0.817379610798554
"751" 2 1 151 1 0.724024749005446
"752" 2 1 152 0 0.534524344706675
"753" 2 1 153 0 0.490265666610561
"754" 2 1 154 0 0.705893705456285
"755" 2 1 155 0 0.820005398728885
"756" 2 1 156 1 0.830340514894342
"757" 2 1 157 0 0.472045139421942
"758" 2 1 158 0 0.587174671213375
"759" 2 1 159 1 1.36712155849999
"760" 2 1 160 1 0.653603010727093
"761" 2 1 161 0 0.688380372916814
"762" 2 1 162 1 1.18821938077034
"763" 2 1 163 0 0.592515871147858
"764" 2 1 164 0 0.512417141626822
"765" 2 1 165 0 0.598593136544805
"766" 2 1 166 0 0.483802752519958
"767" 2 1 167 1 0.57375669126492
"768" 2 1 168 0 0.522435394052183
"769" 2 1 169 0 0.499110972006107
"770" 2 1 170 1 1.03060670909123
"771" 2 1 171 0 0.782373272991739
"772" 2 1 172 0 0.52663759061927
"773" 2 1 173 1 0.648703716060845
"774" 2 1 174 0 1.33916045439825
"775" 2 1 175 1 0.904666564055951
"776" 2 1 176 0 0.499324216218898
"777" 2 1 177 1 0.908393371812068
"778" 2 1 178 0 0.631292790792417
"779" 2 1 179 0 0.609658937301487
"780" 2 1 180 0 0.888416262411047
"781" 2 1 181 0 1.24510346958833
"782" 2 1 182 0 0.544826724481536
"783" 2 1 183 0 0.729451282815309
"784" 2 1 184 0 0.515420064723818
"785" 2 1 185 1 1.0773935200572
"786" 2 1 186 1 0.81028711879137
"787" 2 1 187 0 0.666640756119974
"788" 2 1 188 0 1.02819336520555
"789" 2 1 189 0 0.48899933217233
"790" 2 1 190 0 0.523240899915574
"791" 2 1 191 0 1.12401992529863
"792" 2 1 192 0 0.565253641322488
"793" 2 1 193 0 0.592179589787731
"794" 2 1 194 0 0.554653763712617
"795" 2 1 195 1 1.17539229357708
"796" 2 1 196 0 0.496291682963725
"797" 2 1 197 1 1.14376299457625
"798" 2 1 198 0 0.4936090924819
"799" 2 1 199 1 0.726308842374943
"800" 2 1 200 1 1.21669535698392
"801" 2 2 1 0 0.506502256581327
"802" 2 2 2 0 0.395063334709732
"803" 2 2 3 0 0.75004749475373
"804" 2 2 4 0 0.364532707026461
"805" 2 2 5 0 0.388223048800835
"806" 2 2 6 1 0.440695906114532
"807" 2 2 7 0 0.402101998965722
"808" 2 2 8 0 0.439362607332878
"809" 2 2 9 0 0.418545871226117
"810" 2 2 10 1 0.53802098935144
"811" 2 2 11 0 0.807299898298457
"812" 2 2 12 0 0.408869334942428
"813" 2 2 13 0 0.482232788115274
"814" 2 2 14 0 0.575887140110834
"815" 2 2 15 0 0.394186282181647
"816" 2 2 16 0 0.422114783975296
"817" 2 2 17 0 0.353272011864232
"818" 2 2 18 0 0.758203643814195
"819" 2 2 19 1 0.465923092968529
"820" 2 2 20 1 0.607042041694978
"821" 2 2 21 1 0.596807022542693
"822" 2 2 22 0 0.391913236702094
"823" 2 2 23 0 0.528695626154542
"824" 2 2 24 0 0.358182936787605
"825" 2 2 25 1 0.48763172182953
"826" 2 2 26 0 0.442107453660341
"827" 2 2 27 0 0.382373676754534
"828" 2 2 28 0 0.39359494243376
"829" 2 2 29 0 0.440300096629886
"830" 2 2 30 1 0.669381017037667
"831" 2 2 31 0 0.446400527744088
"832" 2 2 32 0 0.554672844423214
"833" 2 2 33 0 0.357112222544616
"834" 2 2 34 0 0.657321205067914
"835" 2 2 35 0 0.349708280515857
"836" 2 2 36 0 0.43093877162342
"837" 2 2 37 0 0.349261395851383
"838" 2 2 38 0 0.35398545724689
"839" 2 2 39 0 0.35830739003676
"840" 2 2 40 0 0.353080804171041
"841" 2 2 41 1 0.702349908738863
"842" 2 2 42 0 0.381494983785553
"843" 2 2 43 0 0.386761353405658
"844" 2 2 44 0 0.478279049969511
"845" 2 2 45 0 0.51084591081785
"846" 2 2 46 0 0.373421429034555
"847" 2 2 47 0 0.388095205056015
"848" 2 2 48 1 0.757273675868055
"849" 2 2 49 0 0.369580338921165
"850" 2 2 50 0 0.981967744943453
"851" 2 2 51 1 0.768895673759049
"852" 2 2 52 0 0.366122352122096
"853" 2 2 53 1 0.508173063320108
"854" 2 2 54 1 0.609202214455931
"855" 2 2 55 1 0.458676832420519
"856" 2 2 56 1 0.590678150305757
"857" 2 2 57 1 0.492359149935655
"858" 2 2 58 0 0.385857904809061
"859" 2 2 59 0 0.518462992916815
"860" 2 2 60 0 0.388699672532966
"861" 2 2 61 0 0.357119883637875
"862" 2 2 62 0 0.392443209266057
"863" 2 2 63 0 0.375210316912038
"864" 2 2 64 0 0.354516614329768
"865" 2 2 65 0 0.405287745374022
"866" 2 2 66 0 0.537352951608365
"867" 2 2 67 0 0.363707984813489
"868" 2 2 68 0 0.403326143370708
"869" 2 2 69 0 0.485786727279425
"870" 2 2 70 0 0.669347109613242
"871" 2 2 71 1 0.464070595427649
"872" 2 2 72 1 0.542891708942829
"873" 2 2 73 1 0.620748474762309
"874" 2 2 74 0 0.413076024711132
"875" 2 2 75 1 0.61439411377511
"876" 2 2 76 1 0.566414454408689
"877" 2 2 77 0 0.845865124862641
"878" 2 2 78 1 0.621717910845764
"879" 2 2 79 1 0.430899701809045
"880" 2 2 80 0 0.353047385486541
"881" 2 2 81 0 0.429847573239356
"882" 2 2 82 0 0.390761231370736
"883" 2 2 83 0 0.362823681330076
"884" 2 2 84 1 0.455556630854029
"885" 2 2 85 0 0.37555104645784
"886" 2 2 86 1 0.523207952224882
"887" 2 2 87 1 0.733837320712628
"888" 2 2 88 0 0.458656147790374
"889" 2 2 89 1 0.494538151483983
"890" 2 2 90 0 0.50155572562106
"891" 2 2 91 0 0.364733290294418
"892" 2 2 92 0 0.378904434480472
"893" 2 2 93 0 0.405677631456172
"894" 2 2 94 0 0.554375204733107
"895" 2 2 95 0 0.447400437055854
"896" 2 2 96 0 0.357771877093706
"897" 2 2 97 1 0.752093858300475
"898" 2 2 98 0 0.594439790162491
"899" 2 2 99 1 0.463142833042657
"900" 2 2 100 1 0.489759794213111
"901" 2 2 101 0 0.494587645694381
"902" 2 2 102 0 0.412192811676068
"903" 2 2 103 0 0.367926399011631
"904" 2 2 104 0 0.425008300139802
"905" 2 2 105 1 0.730620619679335
"906" 2 2 106 0 0.797517455307301
"907" 2 2 107 0 0.42922154234047
"908" 2 2 108 1 0.484680679437472
"909" 2 2 109 1 0.671355605167802
"910" 2 2 110 1 0.418498390692053
"911" 2 2 111 0 0.357843521092087
"912" 2 2 112 0 0.360734691414284
"913" 2 2 113 1 0.517956893254071
"914" 2 2 114 0 0.428014864197932
"915" 2 2 115 1 0.419158482839353
"916" 2 2 116 0 0.367761496826774
"917" 2 2 117 0 0.771795763866045
"918" 2 2 118 1 0.532320554187754
"919" 2 2 119 0 0.372477479264839
"920" 2 2 120 1 0.614701435222058
"921" 2 2 121 1 0.482378225992434
"922" 2 2 122 0 0.360294670097064
"923" 2 2 123 0 0.355172278821003
"924" 2 2 124 0 0.492754035595572
"925" 2 2 125 0 0.365280947541352
"926" 2 2 126 0 0.397113535881508
"927" 2 2 127 0 0.639355832227273
"928" 2 2 128 0 0.65508283299394
"929" 2 2 129 0 0.410311948777875
"930" 2 2 130 1 0.474308583534323
"931" 2 2 131 0 0.707536310486496
"932" 2 2 132 0 0.376608732307795
"933" 2 2 133 0 0.780196846076986
"934" 2 2 134 1 0.4783547549129
"935" 2 2 135 0 0.357654223339399
"936" 2 2 136 0 0.751439000707818
"937" 2 2 137 0 0.52634027151973
"938" 2 2 138 1 0.572221639270429
"939" 2 2 139 0 0.466668950896943
"940" 2 2 140 0 0.552047138029942
"941" 2 2 141 1 0.45735537463706
"942" 2 2 142 1 0.408948384573916
"943" 2 2 143 0 0.372492035982199
"944" 2 2 144 0 0.473833509478485
"945" 2 2 145 0 0.354505816530203
"946" 2 2 146 0 0.352698248215718
"947" 2 2 147 0 0.449695142445154
"948" 2 2 148 0 0.359514200143749
"949" 2 2 149 0 0.380318310642615
"950" 2 2 150 0 0.696655055201612
"951" 2 2 151 0 0.504287051591789
"952" 2 2 152 1 0.575893048468279
"953" 2 2 153 0 0.670269359759754
"954" 2 2 154 0 1.06324711562134
"955" 2 2 155 0 0.538649739254499
"956" 2 2 156 0 0.599643776437966
"957" 2 2 157 0 0.58397962225019
"958" 2 2 158 0 0.401482087648939
"959" 2 2 159 0 0.957442111931508
"960" 2 2 160 0 0.805378565765219
"961" 2 2 161 1 0.481015320320148
"962" 2 2 162 1 0.506677581742173
"963" 2 2 163 0 0.865671456302982
"964" 2 2 164 0 0.379754085347522
"965" 2 2 165 1 1.22734394087829
"966" 2 2 166 1 0.435900324208429
"967" 2 2 167 0 0.520872998900711
"968" 2 2 168 0 0.453452695750864
"969" 2 2 169 1 0.811443743122276
"970" 2 2 170 0 0.377131156352116
"971" 2 2 171 0 0.384569956143387
"972" 2 2 172 0 0.39638048788812
"973" 2 2 173 1 1.08331892173411
"974" 2 2 174 0 0.362920523155015
"975" 2 2 175 0 0.492203840953298
"976" 2 2 176 0 0.448827235739911
"977" 2 2 177 1 0.43137679027766
"978" 2 2 178 1 0.463767981345532
"979" 2 2 179 0 0.364839108490618
"980" 2 2 180 1 0.465895862980513
"981" 2 2 181 0 0.358309961311985
"982" 2 2 182 0 0.652245846729027
"983" 2 2 183 0 0.449133954859106
"984" 2 2 184 1 0.536898571061436
"985" 2 2 185 1 0.540002767800354
"986" 2 2 186 0 0.39122459091479
"987" 2 2 187 0 0.372279033298604
"988" 2 2 188 0 0.533384402079508
"989" 2 2 189 0 0.355746927929111
"990" 2 2 190 0 0.473831022777595
"991" 2 2 191 0 0.831942130428273
"992" 2 2 192 1 0.940762978892075
"993" 2 2 193 0 0.395342272850452
"994" 2 2 194 0 0.384889999250183
"995" 2 2 195 1 0.764999373034341
"996" 2 2 196 0 0.605126540379133
"997" 2 2 197 0 0.391231250629993
"998" 2 2 198 0 0.563970256725326
"999" 2 2 199 0 0.805436650679447
"1000" 2 2 200 0 0.489803473135456
"1001" 2 3 1 1 1.30985252817371
"1002" 2 3 2 1 1.76923107956816
"1003" 2 3 3 1 2.74385216218024
"1004" 2 3 4 1 1.74162725306186
"1005" 2 3 5 1 0.9635288457633
"1006" 2 3 6 1 0.611835717063164
"1007" 2 3 7 0 0.954623037185287
"1008" 2 3 8 1 1.33816047603427
"1009" 2 3 9 1 1.71745155118033
"1010" 2 3 10 1 1.15241542560328
"1011" 2 3 11 1 2.00305130087514
"1012" 2 3 12 1 0.743230818881421
"1013" 2 3 13 0 0.422935176589759
"1014" 2 3 14 1 1.41933354096604
"1015" 2 3 15 1 0.975787568890955
"1016" 2 3 16 1 1.47863495272188
"1017" 2 3 17 1 1.15544278576481
"1018" 2 3 18 1 1.4745878643773
"1019" 2 3 19 1 1.77425760338153
"1020" 2 3 20 0 0.46068580230535
"1021" 2 3 21 0 1.84306986411707
"1022" 2 3 22 1 1.13284593472467
"1023" 2 3 23 1 0.931751717445906
"1024" 2 3 24 1 0.810062160990201
"1025" 2 3 25 1 0.810998009983683
"1026" 2 3 26 1 0.936239402455278
"1027" 2 3 27 1 1.63491112242918
"1028" 2 3 28 1 1.5499734243874
"1029" 2 3 29 1 2.80555080885417
"1030" 2 3 30 0 0.697603881671326
"1031" 2 3 31 0 1.59934999805968
"1032" 2 3 32 0 1.50262231358048
"1033" 2 3 33 1 1.89488572949287
"1034" 2 3 34 1 2.13079506626423
"1035" 2 3 35 1 0.76063445481821
"1036" 2 3 36 1 0.919872918507783
"1037" 2 3 37 1 1.21725400568545
"1038" 2 3 38 1 0.583520085359458
"1039" 2 3 39 1 1.03980901077273
"1040" 2 3 40 1 2.04312244997593
"1041" 2 3 41 1 0.761358175426256
"1042" 2 3 42 1 1.06138149004919
"1043" 2 3 43 0 0.715514065060299
"1044" 2 3 44 0 0.481669730595779
"1045" 2 3 45 1 1.10723576439801
"1046" 2 3 46 0 0.557183634469286
"1047" 2 3 47 1 2.04108486567088
"1048" 2 3 48 1 1.43888461601036
"1049" 2 3 49 1 1.73813163737278
"1050" 2 3 50 0 0.550186095628189
"1051" 2 3 51 0 1.07957590118865
"1052" 2 3 52 1 1.26176244463259
"1053" 2 3 53 1 1.4589698451669
"1054" 2 3 54 0 0.623392693778034
"1055" 2 3 55 0 0.942605193510419
"1056" 2 3 56 0 1.13248767925496
"1057" 2 3 57 1 1.20870650677593
"1058" 2 3 58 1 1.08607633010438
"1059" 2 3 59 1 1.38901483790553
"1060" 2 3 60 0 2.29372188081499
"1061" 2 3 61 1 0.966456952377921
"1062" 2 3 62 1 2.05591812217538
"1063" 2 3 63 0 0.585632602917496
"1064" 2 3 64 1 2.19603921373654
"1065" 2 3 65 1 1.42878646520199
"1066" 2 3 66 1 1.06068255396537
"1067" 2 3 67 1 1.98892530765617
"1068" 2 3 68 0 1.01243353981758
"1069" 2 3 69 0 0.652857881184435
"1070" 2 3 70 1 1.05959524878999
"1071" 2 3 71 1 1.92843331580306
"1072" 2 3 72 0 0.789471215401543
"1073" 2 3 73 0 1.11126108262315
"1074" 2 3 74 1 1.53045422008098
"1075" 2 3 75 1 1.78920471191313
"1076" 2 3 76 1 1.16811079274351
"1077" 2 3 77 1 1.46272077725106
"1078" 2 3 78 1 0.957546087660361
"1079" 2 3 79 1 0.941506496725371
"1080" 2 3 80 0 0.524097432924202
"1081" 2 3 81 1 1.03496089146612
"1082" 2 3 82 1 1.18744874765142
"1083" 2 3 83 1 1.5386546572533
"1084" 2 3 84 1 2.42769143347954
"1085" 2 3 85 1 1.03276041775313
"1086" 2 3 86 1 1.43166198898153
"1087" 2 3 87 1 1.5185153961021
"1088" 2 3 88 0 0.495076532173203
"1089" 2 3 89 1 1.03313276602002
"1090" 2 3 90 1 0.890748870064737
"1091" 2 3 91 1 0.712729266386014
"1092" 2 3 92 1 1.18947605479625
"1093" 2 3 93 0 0.475182890257333
"1094" 2 3 94 1 1.2431800717013
"1095" 2 3 95 1 0.850184128969675
"1096" 2 3 96 1 1.0186715911082
"1097" 2 3 97 1 2.13974149991781
"1098" 2 3 98 1 0.84278633851395
"1099" 2 3 99 1 1.1262110007822
"1100" 2 3 100 1 0.815626648560166
"1101" 2 3 101 1 1.54585402510688
"1102" 2 3 102 1 0.944860914942809
"1103" 2 3 103 0 1.40806078576716
"1104" 2 3 104 1 1.04161597468657
"1105" 2 3 105 1 1.81678929834114
"1106" 2 3 106 1 1.10364731609263
"1107" 2 3 107 0 0.454397058938397
"1108" 2 3 108 1 1.36550035424531
"1109" 2 3 109 1 1.31988326653093
"1110" 2 3 110 1 0.689690076425672
"1111" 2 3 111 0 1.33709365310008
"1112" 2 3 112 1 0.811733720581746
"1113" 2 3 113 1 1.06507911698241
"1114" 2 3 114 1 1.28503268727544
"1115" 2 3 115 0 0.670529842709424
"1116" 2 3 116 1 1.56692100627976
"1117" 2 3 117 0 0.464282814606093
"1118" 2 3 118 1 2.04617736154539
"1119" 2 3 119 0 0.987671941527864
"1120" 2 3 120 1 1.19887723764149
"1121" 2 3 121 1 1.85737407362927
"1122" 2 3 122 1 1.12456412671809
"1123" 2 3 123 1 0.711358699319884
"1124" 2 3 124 1 1.07660736158234
"1125" 2 3 125 1 0.766131573467283
"1126" 2 3 126 0 1.11320069942903
"1127" 2 3 127 1 0.873167037989944
"1128" 2 3 128 1 0.808284304666799
"1129" 2 3 129 1 1.61474938430893
"1130" 2 3 130 1 0.850716132323025
"1131" 2 3 131 1 0.792082503392128
"1132" 2 3 132 0 0.501036147961859
"1133" 2 3 133 1 1.42487883307808
"1134" 2 3 134 0 0.473275301575661
"1135" 2 3 135 1 0.939580140414648
"1136" 2 3 136 0 0.546733528602868
"1137" 2 3 137 1 1.43521217745682
"1138" 2 3 138 1 1.27861929454957
"1139" 2 3 139 0 0.639935919106239
"1140" 2 3 140 0 0.665423829030246
"1141" 2 3 141 1 0.86195935602719
"1142" 2 3 142 1 1.71003175594076
"1143" 2 3 143 0 0.577558451866265
"1144" 2 3 144 1 0.757066116165137
"1145" 2 3 145 1 1.27418592700385
"1146" 2 3 146 1 0.96812905838876
"1147" 2 3 147 1 1.23032746066176
"1148" 2 3 148 1 0.866524168089498
"1149" 2 3 149 1 1.18803284643474
"1150" 2 3 150 0 0.445918256169418
"1151" 2 3 151 0 0.50261960798339
"1152" 2 3 152 1 1.19183510746527
"1153" 2 3 153 1 1.33586527759722
"1154" 2 3 154 1 1.59932996427221
"1155" 2 3 155 1 1.05279176222137
"1156" 2 3 156 1 0.989775450152578
"1157" 2 3 157 1 0.697896890101954
"1158" 2 3 158 1 0.830068882539868
"1159" 2 3 159 1 1.119662532266
"1160" 2 3 160 1 0.672992874787189
"1161" 2 3 161 1 1.39533162830514
"1162" 2 3 162 0 0.592319200400496
"1163" 2 3 163 1 0.700666624611011
"1164" 2 3 164 1 1.58058099458483
"1165" 2 3 165 0 0.462410705808085
"1166" 2 3 166 1 0.957709527681116
"1167" 2 3 167 1 0.82362733593653
"1168" 2 3 168 1 0.822776529319817
"1169" 2 3 169 0 3.1746826581764
"1170" 2 3 170 1 0.750141693514306
"1171" 2 3 171 1 1.07408765181992
"1172" 2 3 172 1 1.80565531666833
"1173" 2 3 173 1 0.985588820033474
"1174" 2 3 174 1 1.23718410376669
"1175" 2 3 175 1 0.966468192219036
"1176" 2 3 176 1 2.0156318282045
"1177" 2 3 177 1 0.797240394806257
"1178" 2 3 178 0 0.508937707535457
"1179" 2 3 179 0 0.569089244080475
"1180" 2 3 180 1 1.3199982062534
"1181" 2 3 181 1 2.25977874705964
"1182" 2 3 182 0 0.493189071793342
"1183" 2 3 183 1 0.611373916097684
"1184" 2 3 184 0 0.453634503460722
"1185" 2 3 185 1 0.810315212649992
"1186" 2 3 186 1 1.19279511626973
"1187" 2 3 187 0 0.496679495733464
"1188" 2 3 188 0 0.447425008713733
"1189" 2 3 189 0 0.698895406013355
"1190" 2 3 190 0 0.654455475918483
"1191" 2 3 191 1 0.849547992125852
"1192" 2 3 192 0 0.458228783645434
"1193" 2 3 193 1 1.85203086811048
"1194" 2 3 194 1 0.978107971473131
"1195" 2 3 195 1 1.09626600789698
"1196" 2 3 196 1 2.6075056909502
"1197" 2 3 197 1 0.910916941531003
"1198" 2 3 198 1 1.84352375885681
"1199" 2 3 199 1 2.1445767527034
"1200" 2 3 200 1 1.03787584560551
"1201" 3 1 1 0 0.468350695665926
"1202" 3 1 2 1 0.528806264222367
"1203" 3 1 3 0 0.530744285715045
"1204" 3 1 4 0 0.538499891327694
"1205" 3 1 5 0 0.503398386194138
"1206" 3 1 6 1 0.538285164811416
"1207" 3 1 7 0 0.520796268648934
"1208" 3 1 8 0 0.482473288331414
"1209" 3 1 9 0 0.48608300502901
"1210" 3 1 10 0 0.651517938216682
"1211" 3 1 11 1 0.712321983829606
"1212" 3 1 12 0 0.558366033323808
"1213" 3 1 13 0 0.467599273678847
"1214" 3 1 14 1 0.539599481836427
"1215" 3 1 15 1 0.614454328177031
"1216" 3 1 16 0 0.56065980600263
"1217" 3 1 17 0 0.790084792867303
"1218" 3 1 18 0 0.575645410032477
"1219" 3 1 19 0 0.705031369089615
"1220" 3 1 20 0 0.473920042309212
"1221" 3 1 21 0 0.47442928670696
"1222" 3 1 22 0 0.47017501710332
"1223" 3 1 23 0 0.472920271027368
"1224" 3 1 24 0 0.588325413086219
"1225" 3 1 25 0 0.488792181872064
"1226" 3 1 26 0 0.482530041553313
"1227" 3 1 27 1 0.984193011510419
"1228" 3 1 28 0 0.565961253572255
"1229" 3 1 29 0 0.56951646126667
"1230" 3 1 30 0 0.469396823664894
"1231" 3 1 31 0 0.484037074681371
"1232" 3 1 32 0 0.469384813994169
"1233" 3 1 33 0 0.485985769070452
"1234" 3 1 34 1 0.674492877590237
"1235" 3 1 35 1 0.557083195952931
"1236" 3 1 36 0 0.481063154828269
"1237" 3 1 37 0 0.53172840559599
"1238" 3 1 38 0 0.509563267453807
"1239" 3 1 39 0 0.469326067802263
"1240" 3 1 40 0 0.489433837984689
"1241" 3 1 41 0 0.567299279485596
"1242" 3 1 42 0 0.514721770094475
"1243" 3 1 43 0 0.632198608678998
"1244" 3 1 44 0 0.549885278997477
"1245" 3 1 45 1 0.789922643133206
"1246" 3 1 46 1 0.545163530339487
"1247" 3 1 47 0 0.554764614194166
"1248" 3 1 48 0 0.500919157502707
"1249" 3 1 49 0 0.472619411414722
"1250" 3 1 50 0 0.465126226940425
"1251" 3 1 51 0 0.48365292503871
"1252" 3 1 52 0 0.649481809276156
"1253" 3 1 53 0 0.74456627016305
"1254" 3 1 54 0 0.487821504920255
"1255" 3 1 55 1 0.522737507369369
"1256" 3 1 56 1 0.535210594806354
"1257" 3 1 57 0 0.536940596293891
"1258" 3 1 58 0 0.481490151270758
"1259" 3 1 59 0 0.473445686104242
"1260" 3 1 60 0 0.467580939554609
"1261" 3 1 61 1 0.665703505022917
"1262" 3 1 62 1 0.53605387609941
"1263" 3 1 63 0 0.471430178736569
"1264" 3 1 64 1 0.54459894508915
"1265" 3 1 65 1 0.797660117324209
"1266" 3 1 66 0 0.47532316219504
"1267" 3 1 67 0 0.494446622398449
"1268" 3 1 68 1 0.665808535405202
"1269" 3 1 69 0 0.497377830801765
"1270" 3 1 70 0 0.5174766200874
"1271" 3 1 71 0 0.509037129231263
"1272" 3 1 72 0 0.469558278492419
"1273" 3 1 73 1 0.591904176392825
"1274" 3 1 74 0 0.473607503941283
"1275" 3 1 75 1 0.60916853562044
"1276" 3 1 76 1 0.604476734700147
"1277" 3 1 77 0 0.608316590755712
"1278" 3 1 78 0 0.595095523794182
"1279" 3 1 79 0 0.467885885932948
"1280" 3 1 80 1 0.565227038705954
"1281" 3 1 81 1 0.510096470886376
"1282" 3 1 82 0 0.490030785721028
"1283" 3 1 83 1 0.628759121028939
"1284" 3 1 84 0 0.477066794122336
"1285" 3 1 85 0 0.56144399255747
"1286" 3 1 86 0 0.632462832910009
"1287" 3 1 87 0 0.681228743412765
"1288" 3 1 88 0 0.489763470549369
"1289" 3 1 89 0 0.587903187338728
"1290" 3 1 90 1 0.532301224890165
"1291" 3 1 91 0 0.475559567644261
"1292" 3 1 92 0 0.474155377355404
"1293" 3 1 93 0 0.469434081716696
"1294" 3 1 94 0 0.471407474607462
"1295" 3 1 95 1 0.660047321780119
"1296" 3 1 96 0 0.653995815045666
"1297" 3 1 97 0 0.471328393738251
"1298" 3 1 98 0 0.619849553917535
"1299" 3 1 99 0 0.517924030671595
"1300" 3 1 100 0 0.499472626489121
"1301" 3 1 101 0 0.466741466935724
"1302" 3 1 102 0 0.472464162500575
"1303" 3 1 103 1 0.632254861549009
"1304" 3 1 104 0 0.492953388831113
"1305" 3 1 105 0 0.500476625824347
"1306" 3 1 106 0 0.601484101009555
"1307" 3 1 107 0 0.48617805073713
"1308" 3 1 108 0 0.502782963869628
"1309" 3 1 109 1 0.500894634342752
"1310" 3 1 110 0 0.483148575616768
"1311" 3 1 111 1 0.541465889117215
"1312" 3 1 112 1 0.546080573729938
"1313" 3 1 113 0 0.590186917719664
"1314" 3 1 114 0 0.474988344285404
"1315" 3 1 115 0 0.488290896584746
"1316" 3 1 116 0 0.510029669865733
"1317" 3 1 117 0 0.475430838880129
"1318" 3 1 118 0 0.533424740541959
"1319" 3 1 119 1 0.712698954211082
"1320" 3 1 120 0 0.4860626361873
"1321" 3 1 121 1 0.710816587186186
"1322" 3 1 122 0 0.555687070470536
"1323" 3 1 123 1 0.84360896393843
"1324" 3 1 124 0 0.467995523801073
"1325" 3 1 125 1 0.484054329933133
"1326" 3 1 126 1 0.545318572387099
"1327" 3 1 127 0 0.556569859961281
"1328" 3 1 128 0 0.5256517725226
"1329" 3 1 129 0 0.479648480809061
"1330" 3 1 130 0 0.492087990843458
"1331" 3 1 131 0 0.500472763621481
"1332" 3 1 132 0 0.471326958496822
"1333" 3 1 133 0 0.488707740943879
"1334" 3 1 134 0 0.521005399928428
"1335" 3 1 135 0 0.493148950464791
"1336" 3 1 136 1 0.549596835543402
"1337" 3 1 137 0 0.496736280482961
"1338" 3 1 138 1 0.60413508536201
"1339" 3 1 139 0 0.849677925601602
"1340" 3 1 140 0 0.495774188533425
"1341" 3 1 141 0 0.564579188039061
"1342" 3 1 142 0 0.50662702208152
"1343" 3 1 143 0 0.502237956667552
"1344" 3 1 144 0 0.466122845041798
"1345" 3 1 145 0 0.627796414044453
"1346" 3 1 146 1 0.660318983908277
"1347" 3 1 147 0 0.589196447227383
"1348" 3 1 148 0 0.474955077066319
"1349" 3 1 149 0 0.551552710419521
"1350" 3 1 150 0 0.599555122720776
"1351" 3 1 151 1 0.621654811306624
"1352" 3 1 152 0 0.471184502141085
"1353" 3 1 153 0 0.468880627331557
"1354" 3 1 154 0 0.486771921227919
"1355" 3 1 155 0 0.484449544813018
"1356" 3 1 156 1 0.575180555054685
"1357" 3 1 157 0 0.500291126521071
"1358" 3 1 158 0 0.512264510123758
"1359" 3 1 159 1 0.649116421233397
"1360" 3 1 160 0 0.548247765703127
"1361" 3 1 161 1 0.59613576052268
"1362" 3 1 162 1 0.512931377099361
"1363" 3 1 163 1 0.598524750302313
"1364" 3 1 164 1 0.706146260619862
"1365" 3 1 165 0 0.542846837179037
"1366" 3 1 166 0 0.488063200332457
"1367" 3 1 167 0 0.585393618540605
"1368" 3 1 168 0 0.501235444274033
"1369" 3 1 169 0 0.479184696157696
"1370" 3 1 170 1 0.566267817031592
"1371" 3 1 171 1 0.550907228236087
"1372" 3 1 172 0 0.465865353383357
"1373" 3 1 173 0 0.496227728102123
"1374" 3 1 174 0 0.485545672227163
"1375" 3 1 175 0 0.50996004192112
"1376" 3 1 176 0 0.510818461973919
"1377" 3 1 177 0 0.601775850363309
"1378" 3 1 178 1 0.779114865368931
"1379" 3 1 179 0 0.495436150110327
"1380" 3 1 180 0 0.475254354715813
"1381" 3 1 181 0 0.472430018628249
"1382" 3 1 182 0 0.470100002476247
"1383" 3 1 183 0 0.488390032422496
"1384" 3 1 184 1 0.560911253756378
"1385" 3 1 185 0 0.473881507673999
"1386" 3 1 186 0 0.470079100196715
"1387" 3 1 187 0 0.497873319401871
"1388" 3 1 188 1 0.531975134734064
"1389" 3 1 189 0 0.474621831886936
"1390" 3 1 190 0 0.539568796493812
"1391" 3 1 191 0 0.617097403105581
"1392" 3 1 192 1 0.510172947752988
"1393" 3 1 193 0 0.484447043959284
"1394" 3 1 194 0 0.505737704650266
"1395" 3 1 195 1 0.57198782774969
"1396" 3 1 196 1 0.599887258012313
"1397" 3 1 197 0 0.601679418076295
"1398" 3 1 198 0 0.510234309867257
"1399" 3 1 199 0 0.51925109406258
"1400" 3 1 200 0 0.610377198460977
"1401" 3 2 1 1 0.935426758455346
"1402" 3 2 2 0 0.499867788275937
"1403" 3 2 3 1 2.9457976027776
"1404" 3 2 4 0 0.632288002338959
"1405" 3 2 5 0 0.774619192847516
"1406" 3 2 6 0 0.440283446809975
"1407" 3 2 7 1 1.86608029730711
"1408" 3 2 8 1 3.11783255671104
"1409" 3 2 9 1 1.72995246393001
"1410" 3 2 10 0 0.737304081512615
"1411" 3 2 11 0 1.25448808050202
"1412" 3 2 12 1 1.27795686005987
"1413" 3 2 13 1 1.54702716790652
"1414" 3 2 14 1 1.09260422011046
"1415" 3 2 15 0 0.709215031623375
"1416" 3 2 16 0 1.31720999341831
"1417" 3 2 17 1 5.3319826287257
"1418" 3 2 18 1 0.87665248881327
"1419" 3 2 19 0 0.49847853702982
"1420" 3 2 20 1 1.12358181941626
"1421" 3 2 21 1 1.9963122078022
"1422" 3 2 22 1 1.52904588486534
"1423" 3 2 23 0 1.21336234542355
"1424" 3 2 24 0 0.502123523851391
"1425" 3 2 25 0 2.16794396584039
"1426" 3 2 26 1 1.54139436189411
"1427" 3 2 27 1 1.52948781753704
"1428" 3 2 28 0 0.481435613884591
"1429" 3 2 29 1 1.38670953870588
"1430" 3 2 30 1 1.2362743425963
"1431" 3 2 31 0 0.590949035013327
"1432" 3 2 32 0 1.04530188090052
"1433" 3 2 33 0 0.467350662399782
"1434" 3 2 34 1 1.08435184453568
"1435" 3 2 35 1 1.14413468519738
"1436" 3 2 36 0 1.72544382724771
"1437" 3 2 37 1 2.23128974676831
"1438" 3 2 38 0 0.49919773717667
"1439" 3 2 39 1 0.939057152854279
"1440" 3 2 40 0 0.923878632587614
"1441" 3 2 41 0 1.26605620683101
"1442" 3 2 42 1 2.1799559183917
"1443" 3 2 43 0 0.684172555621248
"1444" 3 2 44 0 0.574300269933417
"1445" 3 2 45 1 1.23389201594912
"1446" 3 2 46 1 1.10867423250107
"1447" 3 2 47 0 0.929201942471089
"1448" 3 2 48 0 2.24599005308957
"1449" 3 2 49 0 0.882267079285812
"1450" 3 2 50 0 1.3916845125251
"1451" 3 2 51 0 0.822110521081137
"1452" 3 2 52 0 1.54105465294956
"1453" 3 2 53 0 2.35752792373672
"1454" 3 2 54 0 1.03410348308808
"1455" 3 2 55 1 0.968855680278502
"1456" 3 2 56 0 0.946317187849432
"1457" 3 2 57 0 1.1927420510205
"1458" 3 2 58 0 0.562112075444544
"1459" 3 2 59 0 0.878804867675295
"1460" 3 2 60 1 0.890954192195321
"1461" 3 2 61 0 0.418873165715253
"1462" 3 2 62 1 1.16325415661675
"1463" 3 2 63 1 1.00449555893429
"1464" 3 2 64 1 1.4546396587647
"1465" 3 2 65 0 1.23668692722265
"1466" 3 2 66 0 0.683805123231374
"1467" 3 2 67 0 0.496682798116235
"1468" 3 2 68 1 1.47995097866282
"1469" 3 2 69 1 3.9612756360143
"1470" 3 2 70 0 1.86618273474765
"1471" 3 2 71 1 1.8041199429573
"1472" 3 2 72 0 0.445950670758728
"1473" 3 2 73 0 1.35773017884744
"1474" 3 2 74 1 1.09819211027073
"1475" 3 2 75 0 0.627595122842817
"1476" 3 2 76 0 0.504716157408198
"1477" 3 2 77 0 0.504661058964673
"1478" 3 2 78 0 0.783513430914376
"1479" 3 2 79 1 1.42101647305326
"1480" 3 2 80 0 0.751212338409852
"1481" 3 2 81 1 2.07068736578501
"1482" 3 2 82 1 1.20997694717371
"1483" 3 2 83 1 1.23023486112384
"1484" 3 2 84 0 1.04217188620963
"1485" 3 2 85 0 1.18790792945633
"1486" 3 2 86 1 1.85026964859269
"1487" 3 2 87 0 0.528939978367416
"1488" 3 2 88 0 0.876975785993971
"1489" 3 2 89 0 0.802957192637492
"1490" 3 2 90 1 1.80809294911427
"1491" 3 2 91 1 1.12797191783274
"1492" 3 2 92 1 1.95264036345761
"1493" 3 2 93 0 0.822309143234743
"1494" 3 2 94 1 0.845596264354186
"1495" 3 2 95 1 1.20594074722636
"1496" 3 2 96 1 2.11278419409459
"1497" 3 2 97 0 1.3129274221668
"1498" 3 2 98 0 0.711276074912399
"1499" 3 2 99 1 1.44200318569341
"1500" 3 2 100 1 1.2118243331199
"1501" 3 2 101 0 0.481860397157725
"1502" 3 2 102 0 0.671500032433309
"1503" 3 2 103 1 0.999605761675397
"1504" 3 2 104 0 0.434841410270659
"1505" 3 2 105 1 0.810259757850785
"1506" 3 2 106 1 0.71048596800724
"1507" 3 2 107 0 0.420888104542857
"1508" 3 2 108 0 2.2144085060528
"1509" 3 2 109 0 2.1307508867064
"1510" 3 2 110 1 1.07493023694749
"1511" 3 2 111 0 0.839438933100086
"1512" 3 2 112 0 0.589251707881689
"1513" 3 2 113 1 0.910655416399241
"1514" 3 2 114 1 1.25502557166643
"1515" 3 2 115 1 1.16921016605757
"1516" 3 2 116 0 2.31097646871652
"1517" 3 2 117 0 0.655431283151731
"1518" 3 2 118 0 0.724101798855467
"1519" 3 2 119 0 0.791030665637925
"1520" 3 2 120 1 1.75029757603398
"1521" 3 2 121 1 1.25845643511112
"1522" 3 2 122 1 1.84120288720657
"1523" 3 2 123 1 1.10082435476384
"1524" 3 2 124 1 1.70816389825707
"1525" 3 2 125 0 0.525120794493472
"1526" 3 2 126 0 1.66288156241737
"1527" 3 2 127 1 3.4604565601768
"1528" 3 2 128 1 1.46166437950148
"1529" 3 2 129 0 1.36520549363387
"1530" 3 2 130 0 0.533208931716159
"1531" 3 2 131 0 0.456391243147198
"1532" 3 2 132 0 1.14362881800672
"1533" 3 2 133 0 0.467064817621838
"1534" 3 2 134 1 2.74000218425039
"1535" 3 2 135 0 0.912488330431515
"1536" 3 2 136 0 0.567907052911818
"1537" 3 2 137 0 0.696030273126671
"1538" 3 2 138 0 0.860405355924042
"1539" 3 2 139 0 0.620737329424592
"1540" 3 2 140 0 0.665593528473051
"1541" 3 2 141 1 0.730536077156197
"1542" 3 2 142 1 2.28127244806429
"1543" 3 2 143 1 0.931248699311167
"1544" 3 2 144 1 1.86893920541299
"1545" 3 2 145 1 1.43350911022304
"1546" 3 2 146 1 1.45733125407342
"1547" 3 2 147 1 0.73830526714772
"1548" 3 2 148 1 1.61534327104967
"1549" 3 2 149 1 1.01971243270673
"1550" 3 2 150 0 0.574713430345757
"1551" 3 2 151 0 0.568425746049732
"1552" 3 2 152 1 0.92031147741247
"1553" 3 2 153 1 1.65199121461064
"1554" 3 2 154 0 1.3976942533548
"1555" 3 2 155 0 0.529055200598901
"1556" 3 2 156 0 0.500532574495999
"1557" 3 2 157 1 0.664751349985599
"1558" 3 2 158 0 1.59835871970514
"1559" 3 2 159 1 1.68222293312172
"1560" 3 2 160 0 2.73046232509403
"1561" 3 2 161 0 0.948587398690172
"1562" 3 2 162 1 1.80297048269631
"1563" 3 2 163 1 0.919218038848136
"1564" 3 2 164 0 0.979875617518323
"1565" 3 2 165 0 0.879995018349495
"1566" 3 2 166 0 1.6973967319997
"1567" 3 2 167 1 0.973843620167812
"1568" 3 2 168 0 2.093669901232
"1569" 3 2 169 0 0.778116252730833
"1570" 3 2 170 0 0.557395617700415
"1571" 3 2 171 0 0.442374458475737
"1572" 3 2 172 1 0.945850356536917
"1573" 3 2 173 1 0.934203911920078
"1574" 3 2 174 1 1.88096062523802
"1575" 3 2 175 0 0.944119677611394
"1576" 3 2 176 0 1.70928407883528
"1577" 3 2 177 0 0.836099570762599
"1578" 3 2 178 1 0.721853236387717
"1579" 3 2 179 0 0.736456947007449
"1580" 3 2 180 1 1.30127710588835
"1581" 3 2 181 0 0.881126567991218
"1582" 3 2 182 0 0.949801090651657
"1583" 3 2 183 1 1.70343151212763
"1584" 3 2 184 1 0.923595265513752
"1585" 3 2 185 1 1.18321849622997
"1586" 3 2 186 0 0.580526660437928
"1587" 3 2 187 1 1.1129954742163
"1588" 3 2 188 1 0.630443516970845
"1589" 3 2 189 0 0.440463705429109
"1590" 3 2 190 0 0.66188612052612
"1591" 3 2 191 1 0.599608650594018
"1592" 3 2 192 1 1.10445857166639
"1593" 3 2 193 0 2.48863311582734
"1594" 3 2 194 1 1.67428480764595
"1595" 3 2 195 0 0.666231788079254
"1596" 3 2 196 1 1.47363655897789
"1597" 3 2 197 1 4.12906982105854
"1598" 3 2 198 0 0.509391687639523
"1599" 3 2 199 0 0.449515605323715
"1600" 3 2 200 1 1.15155294773798
"1601" 3 3 1 1 1.07164368718071
"1602" 3 3 2 1 1.31513889886066
"1603" 3 3 3 1 3.40760359320091
"1604" 3 3 4 1 1.55468584377202
"1605" 3 3 5 1 0.952994788406882
"1606" 3 3 6 1 1.71358516276558
"1607" 3 3 7 1 0.978596249441849
"1608" 3 3 8 1 2.69590796276415
"1609" 3 3 9 1 1.95169101255317
"1610" 3 3 10 1 2.25004846683517
"1611" 3 3 11 1 1.55069083181233
"1612" 3 3 12 1 1.51790781947528
"1613" 3 3 13 1 1.67336857735692
"1614" 3 3 14 1 2.4911745501922
"1615" 3 3 15 1 2.43011792210233
"1616" 3 3 16 1 1.23989118947741
"1617" 3 3 17 1 1.2949077343829
"1618" 3 3 18 1 1.64578800646868
"1619" 3 3 19 0 1.10742392892088
"1620" 3 3 20 1 4.2677845659391
"1621" 3 3 21 1 1.74026897372934
"1622" 3 3 22 1 2.0167700437014
"1623" 3 3 23 1 2.88644713129429
"1624" 3 3 24 1 0.87639833474136
"1625" 3 3 25 1 2.61099164804281
"1626" 3 3 26 1 2.50410619414435
"1627" 3 3 27 1 1.74782414544281
"1628" 3 3 28 1 1.34305023041321
"1629" 3 3 29 1 3.77624560110085
"1630" 3 3 30 1 1.45614953071997
"1631" 3 3 31 0 0.947474247570615
"1632" 3 3 32 1 1.13980709014041
"1633" 3 3 33 0 0.924211825365201
"1634" 3 3 34 1 2.47008512848592
"1635" 3 3 35 1 2.09543633805681
"1636" 3 3 36 1 2.25679306507157
"1637" 3 3 37 1 2.75967520604259
"1638" 3 3 38 1 1.1245024103343
"1639" 3 3 39 1 3.09631845020014
"1640" 3 3 40 0 0.953295468592085
"1641" 3 3 41 1 1.92476841429411
"1642" 3 3 42 0 1.02896696149721
"1643" 3 3 43 1 2.27967434491823
"1644" 3 3 44 1 2.4238823769358
"1645" 3 3 45 0 0.893350235383958
"1646" 3 3 46 1 3.06607614165475
"1647" 3 3 47 1 2.22335882596555
"1648" 3 3 48 1 3.68627789795445
"1649" 3 3 49 1 1.88888991700276
"1650" 3 3 50 0 1.14724239622592
"1651" 3 3 51 1 3.61443485364527
"1652" 3 3 52 1 1.78996417029807
"1653" 3 3 53 0 0.640359788964735
"1654" 3 3 54 1 2.52396037322283
"1655" 3 3 55 1 2.26139861489693
"1656" 3 3 56 1 2.36726123789954
"1657" 3 3 57 1 1.95890197198489
"1658" 3 3 58 1 2.71198949612351
"1659" 3 3 59 1 2.23011590642086
"1660" 3 3 60 1 1.58653017505095
"1661" 3 3 61 1 1.42252493226761
"1662" 3 3 62 1 2.1037098219723
"1663" 3 3 63 1 0.991055433192523
"1664" 3 3 64 1 1.03229899723385
"1665" 3 3 65 0 0.768429033888737
"1666" 3 3 66 1 1.45965240519703
"1667" 3 3 67 0 0.56250957804732
"1668" 3 3 68 1 1.79455586998141
"1669" 3 3 69 1 1.93138877020963
"1670" 3 3 70 1 0.929163672179915
"1671" 3 3 71 1 1.35935119001218
"1672" 3 3 72 1 2.13830094819842
"1673" 3 3 73 1 2.03086949540093
"1674" 3 3 74 1 2.77494698203471
"1675" 3 3 75 1 1.29683195438329
"1676" 3 3 76 1 2.25015453801607
"1677" 3 3 77 1 1.22446615899005
"1678" 3 3 78 1 1.32926397100068
"1679" 3 3 79 0 0.586156962734647
"1680" 3 3 80 1 0.93889613113855
"1681" 3 3 81 1 1.66944673528918
"1682" 3 3 82 1 1.58280064178421
"1683" 3 3 83 1 2.10332039041654
"1684" 3 3 84 1 2.12430860323715
"1685" 3 3 85 1 1.31399895775202
"1686" 3 3 86 1 1.58080139406887
"1687" 3 3 87 0 0.59314353425242
"1688" 3 3 88 0 1.47410909889312
"1689" 3 3 89 1 2.03067150357668
"1690" 3 3 90 1 1.48202227672259
"1691" 3 3 91 1 2.34481190360803
"1692" 3 3 92 1 3.12917487595836
"1693" 3 3 93 1 2.10071180934506
"1694" 3 3 94 1 2.48453987593506
"1695" 3 3 95 1 2.90808921445557
"1696" 3 3 96 1 2.58068807396898
"1697" 3 3 97 1 0.878332221046556
"1698" 3 3 98 0 0.602512795298593
"1699" 3 3 99 1 1.07866334224609
"1700" 3 3 100 0 2.1978558134269
"1701" 3 3 101 0 0.839258247382008
"1702" 3 3 102 1 3.36493193984847
"1703" 3 3 103 1 2.48724293046747
"1704" 3 3 104 1 2.30815890137665
"1705" 3 3 105 0 0.602152424355038
"1706" 3 3 106 0 1.68735143975215
"1707" 3 3 107 1 4.5081812600207
"1708" 3 3 108 1 2.12045410188427
"1709" 3 3 109 1 3.13642510961578
"1710" 3 3 110 1 2.18323951809085
"1711" 3 3 111 0 1.23532651786995
"1712" 3 3 112 1 2.89974077963526
"1713" 3 3 113 1 1.35183432692615
"1714" 3 3 114 1 1.2793210907774
"1715" 3 3 115 0 0.891561603618553
"1716" 3 3 116 1 1.04575320282462
"1717" 3 3 117 0 0.90909090898349
"1718" 3 3 118 0 0.592120638655033
"1719" 3 3 119 1 2.47034709420963
"1720" 3 3 120 1 3.3288584703505
"1721" 3 3 121 1 1.08862457754812
"1722" 3 3 122 1 1.36627342674322
"1723" 3 3 123 1 3.28716186829051
"1724" 3 3 124 1 2.89375688603381
"1725" 3 3 125 1 1.41268097121012
"1726" 3 3 126 1 2.26296629772568
"1727" 3 3 127 1 2.2339846246473
"1728" 3 3 128 0 0.679214307652786
"1729" 3 3 129 1 2.3016938267306
"1730" 3 3 130 1 2.30283363582147
"1731" 3 3 131 1 1.89699628612911
"1732" 3 3 132 1 1.38369150568335
"1733" 3 3 133 1 1.34430998788681
"1734" 3 3 134 1 2.07800666448334
"1735" 3 3 135 1 2.14051694510342
"1736" 3 3 136 1 1.68916994262184
"1737" 3 3 137 1 1.53762544301269
"1738" 3 3 138 1 2.2869840258956
"1739" 3 3 139 1 1.99446281577833
"1740" 3 3 140 1 1.88482304541743
"1741" 3 3 141 1 1.36299876932264
"1742" 3 3 142 1 1.37737688450399
"1743" 3 3 143 1 2.83407675984735
"1744" 3 3 144 0 0.813790470889304
"1745" 3 3 145 0 2.00356142584421
"1746" 3 3 146 1 2.28925267248182
"1747" 3 3 147 1 3.46739790354832
"1748" 3 3 148 0 0.687496230231831
"1749" 3 3 149 1 1.38861952474131
"1750" 3 3 150 1 1.68559740022151
"1751" 3 3 151 1 1.24720107310731
"1752" 3 3 152 0 0.920524844038533
"1753" 3 3 153 1 0.881417209163541
"1754" 3 3 154 1 2.50275454883953
"1755" 3 3 155 1 1.69336169278901
"1756" 3 3 156 1 2.76663337341836
"1757" 3 3 157 1 3.25871735678823
"1758" 3 3 158 1 1.38819400948775
"1759" 3 3 159 1 1.82998210955434
"1760" 3 3 160 1 1.47887663368625
"1761" 3 3 161 1 1.22669088009628
"1762" 3 3 162 1 1.68467860096321
"1763" 3 3 163 0 0.57834509384213
"1764" 3 3 164 1 1.72197434978979
"1765" 3 3 165 1 2.25856008400139
"1766" 3 3 166 1 3.93806039927574
"1767" 3 3 167 1 1.52450345858582
"1768" 3 3 168 0 0.659942487728316
"1769" 3 3 169 1 2.66615197578166
"1770" 3 3 170 1 1.30340647063451
"1771" 3 3 171 1 2.30030224747444
"1772" 3 3 172 1 2.14196196845057
"1773" 3 3 173 1 2.1682262688186
"1774" 3 3 174 1 1.17034544029809
"1775" 3 3 175 0 2.173220621777
"1776" 3 3 176 1 1.29067465210636
"1777" 3 3 177 1 2.87023486655066
"1778" 3 3 178 1 2.7539544796152
"1779" 3 3 179 1 2.21290568357054
"1780" 3 3 180 1 1.83381980817299
"1781" 3 3 181 1 1.34017148801498
"1782" 3 3 182 1 0.876584722843953
"1783" 3 3 183 1 2.32950513791433
"1784" 3 3 184 1 0.977574719612254
"1785" 3 3 185 1 2.09245314449957
"1786" 3 3 186 1 3.55585096915299
"1787" 3 3 187 1 1.92448557046801
"1788" 3 3 188 0 0.78177303111949
"1789" 3 3 189 0 1.20909171676543
"1790" 3 3 190 1 1.37007496492704
"1791" 3 3 191 0 0.94455119096837
"1792" 3 3 192 1 1.52121266220673
"1793" 3 3 193 1 1.76219510935084
"1794" 3 3 194 1 1.52915665004891
"1795" 3 3 195 1 2.63446100469283
"1796" 3 3 196 0 2.48737812123518
"1797" 3 3 197 1 1.47982366141654
"1798" 3 3 198 1 1.58928587938403
"1799" 3 3 199 1 1.3003014793531
"1800" 3 3 200 1 1.68243202123139
"1801" 4 1 1 1 0.584626214054879
"1802" 4 1 2 0 0.995088787611807
"1803" 4 1 3 0 0.663469423668459
"1804" 4 1 4 0 0.910975088847335
"1805" 4 1 5 0 0.768743329707999
"1806" 4 1 6 1 1.4427272655589
"1807" 4 1 7 0 0.667193346313899
"1808" 4 1 8 1 0.764879246055614
"1809" 4 1 9 0 0.606304458922241
"1810" 4 1 10 1 0.708653838959755
"1811" 4 1 11 0 0.709692593300249
"1812" 4 1 12 0 0.530573969448218
"1813" 4 1 13 1 0.721030559461564
"1814" 4 1 14 0 0.68997667490691
"1815" 4 1 15 0 0.630247138042701
"1816" 4 1 16 0 0.590815079141175
"1817" 4 1 17 1 0.702812387306709
"1818" 4 1 18 1 0.913913743508747
"1819" 4 1 19 1 0.585825021680677
"1820" 4 1 20 1 0.665952563638799
"1821" 4 1 21 0 0.577315978684696
"1822" 4 1 22 1 1.04664291946916
"1823" 4 1 23 0 0.452751579187578
"1824" 4 1 24 0 0.633811449969187
"1825" 4 1 25 0 0.471308190313168
"1826" 4 1 26 1 1.22066799949924
"1827" 4 1 27 1 0.859746603649808
"1828" 4 1 28 0 0.56173450381821
"1829" 4 1 29 0 0.921729734140216
"1830" 4 1 30 1 0.547331232386641
"1831" 4 1 31 0 0.562810333309462
"1832" 4 1 32 1 0.591842033738736
"1833" 4 1 33 1 0.854193008258008
"1834" 4 1 34 0 0.517217707467498
"1835" 4 1 35 0 0.585699424537597
"1836" 4 1 36 1 1.41132986944122
"1837" 4 1 37 1 0.850534298781306
"1838" 4 1 38 1 1.54772384110931
"1839" 4 1 39 1 0.596180546164513
"1840" 4 1 40 1 0.627701521302573
"1841" 4 1 41 1 0.659190199562581
"1842" 4 1 42 0 0.472560761374421
"1843" 4 1 43 1 1.54996256720577
"1844" 4 1 44 1 0.626244832386496
"1845" 4 1 45 1 0.759560368171893
"1846" 4 1 46 1 0.523318579692626
"1847" 4 1 47 1 0.531849180873018
"1848" 4 1 48 1 0.691483566700481
"1849" 4 1 49 1 0.645315709536895
"1850" 4 1 50 1 0.75214630665537
"1851" 4 1 51 1 0.692685527540743
"1852" 4 1 52 0 0.459541087467223
"1853" 4 1 53 1 0.987193851592718
"1854" 4 1 54 0 0.720586334102322
"1855" 4 1 55 1 0.709752508213744
"1856" 4 1 56 1 0.626309015217703
"1857" 4 1 57 1 0.707925323071424
"1858" 4 1 58 1 0.563527573992964
"1859" 4 1 59 0 0.473843084658962
"1860" 4 1 60 0 0.60229041151912
"1861" 4 1 61 1 0.577347811205545
"1862" 4 1 62 1 0.906015884351917
"1863" 4 1 63 1 0.984309550289996
"1864" 4 1 64 0 0.479909772090148
"1865" 4 1 65 1 0.766328071813565
"1866" 4 1 66 1 0.530414719396038
"1867" 4 1 67 0 0.53202916913107
"1868" 4 1 68 0 0.471721719301306
"1869" 4 1 69 0 0.859555210440885
"1870" 4 1 70 0 0.487572385539301
"1871" 4 1 71 1 0.738610486915335
"1872" 4 1 72 1 0.697431987343589
"1873" 4 1 73 1 0.570843341154978
"1874" 4 1 74 0 0.526614610356977
"1875" 4 1 75 0 0.736332281021867
"1876" 4 1 76 0 0.734461026967038
"1877" 4 1 77 0 0.633070032379823
"1878" 4 1 78 0 0.466821071939543
"1879" 4 1 79 0 0.462761624141363
"1880" 4 1 80 0 0.504383974613156
"1881" 4 1 81 1 0.809768131344346
"1882" 4 1 82 1 1.11814121380006
"1883" 4 1 83 0 0.565793824268039
"1884" 4 1 84 1 1.17261666824925
"1885" 4 1 85 0 0.468041028197622
"1886" 4 1 86 1 1.01939629139728
"1887" 4 1 87 0 0.473134335770039
"1888" 4 1 88 1 0.621558677051449
"1889" 4 1 89 1 0.89335181775922
"1890" 4 1 90 1 0.617083973261761
"1891" 4 1 91 0 1.28971974564064
"1892" 4 1 92 1 0.568669398912461
"1893" 4 1 93 0 0.644653679987416
"1894" 4 1 94 1 0.578756275215186
"1895" 4 1 95 0 0.479918174231658
"1896" 4 1 96 0 0.534182016801089
"1897" 4 1 97 0 0.467704278983409
"1898" 4 1 98 1 0.67969484116789
"1899" 4 1 99 0 0.760971564213745
"1900" 4 1 100 1 0.75378635229636
"1901" 4 1 101 0 0.786350089038722
"1902" 4 1 102 1 0.771632698570611
"1903" 4 1 103 1 0.72483119760477
"1904" 4 1 104 0 0.511372043548385
"1905" 4 1 105 1 0.900071462835651
"1906" 4 1 106 1 0.911455572230741
"1907" 4 1 107 1 0.972477252190001
"1908" 4 1 108 0 0.509884402064374
"1909" 4 1 109 0 1.08782449830207
"1910" 4 1 110 0 0.548836268287152
"1911" 4 1 111 0 0.555625755431829
"1912" 4 1 112 1 0.953563991560601
"1913" 4 1 113 0 0.499244000270497
"1914" 4 1 114 0 0.489239885150688
"1915" 4 1 115 0 0.790557490473613
"1916" 4 1 116 0 0.88421995822317
"1917" 4 1 117 0 0.461922300922219
"1918" 4 1 118 1 1.00757764548529
"1919" 4 1 119 0 0.793735352598596
"1920" 4 1 120 0 1.30125667460402
"1921" 4 1 121 0 0.462202275869437
"1922" 4 1 122 1 0.992546467774781
"1923" 4 1 123 0 0.63050804315717
"1924" 4 1 124 1 0.504327404957032
"1925" 4 1 125 0 1.12911881195358
"1926" 4 1 126 0 0.516328476835042
"1927" 4 1 127 0 0.471890106737846
"1928" 4 1 128 0 0.551192112065852
"1929" 4 1 129 1 0.589277216908755
"1930" 4 1 130 1 0.661637885983568
"1931" 4 1 131 0 0.489425550127402
"1932" 4 1 132 0 0.608586475445191
"1933" 4 1 133 0 0.456700510381255
"1934" 4 1 134 0 0.770293041632744
"1935" 4 1 135 0 0.499186208570842
"1936" 4 1 136 0 0.512611604171805
"1937" 4 1 137 0 0.532129370240262
"1938" 4 1 138 0 0.529658337587724
"1939" 4 1 139 1 0.794283668743446
"1940" 4 1 140 1 0.662207815829432
"1941" 4 1 141 0 0.469784378634999
"1942" 4 1 142 0 0.685322852000594
"1943" 4 1 143 0 0.501491344623501
"1944" 4 1 144 0 0.57353890278982
"1945" 4 1 145 1 0.766974381458946
"1946" 4 1 146 0 0.571255185296526
"1947" 4 1 147 1 0.974707019158406
"1948" 4 1 148 0 0.609198824628722
"1949" 4 1 149 1 0.725201922266511
"1950" 4 1 150 0 0.500817562675336
"1951" 4 1 151 1 0.56105695074494
"1952" 4 1 152 0 0.85627901197155
"1953" 4 1 153 0 0.532726257285336
"1954" 4 1 154 0 0.47412667979626
"1955" 4 1 155 0 0.507176658672746
"1956" 4 1 156 0 0.494751035114285
"1957" 4 1 157 0 0.504328957032645
"1958" 4 1 158 0 0.542275282206945
"1959" 4 1 159 0 0.450526555627352
"1960" 4 1 160 0 0.699950313103851
"1961" 4 1 161 1 0.68237869095942
"1962" 4 1 162 1 1.03300195076666
"1963" 4 1 163 0 0.465113277239725
"1964" 4 1 164 1 0.702986883604433
"1965" 4 1 165 0 1.27450456328993
"1966" 4 1 166 0 0.487178887520218
"1967" 4 1 167 0 0.465260256463429
"1968" 4 1 168 0 0.638004564931849
"1969" 4 1 169 0 0.594141166134505
"1970" 4 1 170 1 0.830596729311161
"1971" 4 1 171 0 0.47349967361032
"1972" 4 1 172 0 0.55966058463743
"1973" 4 1 173 1 0.705145109986654
"1974" 4 1 174 0 0.477517470274353
"1975" 4 1 175 0 0.515144484442892
"1976" 4 1 176 0 0.950215866475599
"1977" 4 1 177 0 0.469939153311774
"1978" 4 1 178 0 0.580792939389125
"1979" 4 1 179 1 1.0144254702148
"1980" 4 1 180 1 0.749505078878719
"1981" 4 1 181 0 0.622958517404506
"1982" 4 1 182 1 1.76467715111328
"1983" 4 1 183 0 0.610112546042539
"1984" 4 1 184 0 0.617591343806358
"1985" 4 1 185 0 0.494012608339777
"1986" 4 1 186 0 0.683601530821528
"1987" 4 1 187 1 0.916711312564788
"1988" 4 1 188 0 0.49335935186944
"1989" 4 1 189 1 0.554403700498631
"1990" 4 1 190 0 0.770365998522611
"1991" 4 1 191 1 0.592075966996606
"1992" 4 1 192 0 0.495278153909836
"1993" 4 1 193 0 0.530821758148726
"1994" 4 1 194 0 0.457302688455908
"1995" 4 1 195 0 0.62768575316784
"1996" 4 1 196 1 0.512680943019688
"1997" 4 1 197 0 0.482733192648739
"1998" 4 1 198 1 0.753645287295803
"1999" 4 1 199 0 0.648084456006531
"2000" 4 1 200 0 0.462385004693177
"2001" 4 2 1 0 0.650808483921457
"2002" 4 2 2 0 0.704821261019679
"2003" 4 2 3 0 4.98874351192685
"2004" 4 2 4 0 1.09371856496995
"2005" 4 2 5 0 0.548588714984944
"2006" 4 2 6 0 0.646754148828797
"2007" 4 2 7 0 0.75237923698267
"2008" 4 2 8 0 0.704552393949591
"2009" 4 2 9 0 1.79989880702877
"2010" 4 2 10 0 0.579280180884525
"2011" 4 2 11 1 5.9908189999091
"2012" 4 2 12 0 1.53976800668985
"2013" 4 2 13 0 0.664342180842068
"2014" 4 2 14 0 1.82225286383997
"2015" 4 2 15 0 3.0107615276596
"2016" 4 2 16 0 1.86071718238923
"2017" 4 2 17 0 1.32228995466093
"2018" 4 2 18 1 2.7224360139994
"2019" 4 2 19 0 0.903261652060086
"2020" 4 2 20 1 2.05929978280352
"2021" 4 2 21 0 1.1392489799906
"2022" 4 2 22 1 3.43695695075509
"2023" 4 2 23 1 1.15033471001219
"2024" 4 2 24 0 3.98787971993419
"2025" 4 2 25 1 2.31960519480403
"2026" 4 2 26 0 1.92949195574666
"2027" 4 2 27 0 0.760487722605234
"2028" 4 2 28 1 1.55292128201062
"2029" 4 2 29 0 1.80647670624848
"2030" 4 2 30 0 0.573592225095024
"2031" 4 2 31 0 2.58646046475088
"2032" 4 2 32 0 0.925144888305105
"2033" 4 2 33 0 7.07927600938687
"2034" 4 2 34 0 0.747453044876922
"2035" 4 2 35 0 0.654772776699392
"2036" 4 2 36 0 2.84237233048328
"2037" 4 2 37 0 0.709127950819675
"2038" 4 2 38 0 1.58305522710783
"2039" 4 2 39 1 2.96328148046834
"2040" 4 2 40 0 3.23068826503959
"2041" 4 2 41 1 2.5062711923758
"2042" 4 2 42 0 3.91003973227227
"2043" 4 2 43 1 8.35730203367164
"2044" 4 2 44 0 0.527279864709126
"2045" 4 2 45 1 1.52629618155141
"2046" 4 2 46 1 6.20725972875278
"2047" 4 2 47 1 3.0981620851194
"2048" 4 2 48 0 2.7584642401773
"2049" 4 2 49 0 2.23595218779007
"2050" 4 2 50 0 5.90667143730237
"2051" 4 2 51 0 1.20364832288143
"2052" 4 2 52 0 0.617302265743492
"2053" 4 2 53 0 0.739497511377093
"2054" 4 2 54 0 0.82976357696671
"2055" 4 2 55 1 1.72233451473434
"2056" 4 2 56 0 1.76927370103472
"2057" 4 2 57 0 1.38310241916613
"2058" 4 2 58 0 1.4823249028041
"2059" 4 2 59 0 0.970684652754106
"2060" 4 2 60 0 1.01309521952155
"2061" 4 2 61 0 1.16268078554282
"2062" 4 2 62 0 1.83985525757191
"2063" 4 2 63 0 2.72387383096991
"2064" 4 2 64 1 2.38185125114466
"2065" 4 2 65 0 2.22452283416176
"2066" 4 2 66 0 2.15502951346873
"2067" 4 2 67 1 1.94509028917155
"2068" 4 2 68 0 2.72239609949081
"2069" 4 2 69 1 1.32075702530472
"2070" 4 2 70 1 1.55351737891417
"2071" 4 2 71 0 0.524503632903565
"2072" 4 2 72 0 0.980395825106185
"2073" 4 2 73 1 2.9891279591294
"2074" 4 2 74 0 3.81290464760968
"2075" 4 2 75 0 0.621582693419419
"2076" 4 2 76 0 0.724875855797669
"2077" 4 2 77 1 4.62727435197937
"2078" 4 2 78 0 3.64569892774709
"2079" 4 2 79 0 0.980029891828541
"2080" 4 2 80 0 3.66976707775239
"2081" 4 2 81 0 0.605870436046971
"2082" 4 2 82 0 0.666164741971297
"2083" 4 2 83 0 3.02775204272917
"2084" 4 2 84 0 0.886790988795459
"2085" 4 2 85 0 1.61504329004977
"2086" 4 2 86 0 1.15559986667661
"2087" 4 2 87 0 1.62577573655685
"2088" 4 2 88 1 5.30955488831946
"2089" 4 2 89 1 1.08614302546135
"2090" 4 2 90 0 4.51387171984022
"2091" 4 2 91 0 0.656530019348953
"2092" 4 2 92 0 2.74012166872877
"2093" 4 2 93 1 3.07209167252178
"2094" 4 2 94 0 0.767534548477037
"2095" 4 2 95 0 2.41915471654595
"2096" 4 2 96 1 1.94162920203106
"2097" 4 2 97 0 0.670493771633366
"2098" 4 2 98 0 0.756262399702799
"2099" 4 2 99 1 6.57362404622394
"2100" 4 2 100 0 1.93853927362757
"2101" 4 2 101 0 0.898426697689109
"2102" 4 2 102 1 3.34546217082581
"2103" 4 2 103 0 0.510261688262457
"2104" 4 2 104 1 6.6861407928227
"2105" 4 2 105 0 1.95820723231253
"2106" 4 2 106 0 6.50463288166048
"2107" 4 2 107 0 1.5631924026045
"2108" 4 2 108 0 1.02474970521964
"2109" 4 2 109 0 0.593798228481552
"2110" 4 2 110 0 4.48005659302627
"2111" 4 2 111 1 3.67530234404956
"2112" 4 2 112 0 0.822062166132964
"2113" 4 2 113 0 0.629881692741299
"2114" 4 2 114 0 0.633639265324455
"2115" 4 2 115 0 1.4296144976127
"2116" 4 2 116 0 0.626453600206645
"2117" 4 2 117 0 1.57024139979738
"2118" 4 2 118 0 0.653157696253387
"2119" 4 2 119 0 1.1922278435519
"2120" 4 2 120 0 0.919268548032967
"2121" 4 2 121 0 3.86022416310618
"2122" 4 2 122 0 0.740285381401423
"2123" 4 2 123 1 5.72471907852474
"2124" 4 2 124 0 3.84855092377774
"2125" 4 2 125 0 1.86968901417614
"2126" 4 2 126 0 4.17238775659678
"2127" 4 2 127 0 0.614659453124972
"2128" 4 2 128 0 0.933364800259238
"2129" 4 2 129 0 0.502538867200492
"2130" 4 2 130 1 5.32840155131998
"2131" 4 2 131 0 0.768413117891177
"2132" 4 2 132 0 3.92264048253768
"2133" 4 2 133 0 1.8722359556423
"2134" 4 2 134 0 0.943270680970512
"2135" 4 2 135 0 0.687112397874007
"2136" 4 2 136 1 6.63977806241834
"2137" 4 2 137 0 0.625786313013174
"2138" 4 2 138 1 6.59319281337759
"2139" 4 2 139 0 1.08740430665342
"2140" 4 2 140 0 0.727006377664162
"2141" 4 2 141 1 1.10894237491861
"2142" 4 2 142 0 0.640804803163745
"2143" 4 2 143 0 0.5589096227556
"2144" 4 2 144 0 1.32218903532252
"2145" 4 2 145 0 1.96035606423509
"2146" 4 2 146 1 1.46134598192619
"2147" 4 2 147 0 0.688213340627262
"2148" 4 2 148 0 1.00121942883357
"2149" 4 2 149 0 1.87424301294261
"2150" 4 2 150 0 1.11139679325931
"2151" 4 2 151 1 2.40475207587169
"2152" 4 2 152 0 0.548694359265035
"2153" 4 2 153 0 0.900227429435123
"2154" 4 2 154 0 4.92906108767493
"2155" 4 2 155 0 0.735846893393435
"2156" 4 2 156 0 6.23507124938094
"2157" 4 2 157 0 2.71025775287766
"2158" 4 2 158 0 7.46770499922847
"2159" 4 2 159 0 1.50309190203645
"2160" 4 2 160 0 0.884768975609681
"2161" 4 2 161 0 2.2498392084837
"2162" 4 2 162 0 1.95537163493154
"2163" 4 2 163 0 2.53155555426236
"2164" 4 2 164 0 1.02111316813715
"2165" 4 2 165 0 1.79859066206263
"2166" 4 2 166 0 0.762656329209684
"2167" 4 2 167 0 0.776753620484611
"2168" 4 2 168 0 0.703329114155844
"2169" 4 2 169 0 0.605737301170593
"2170" 4 2 170 1 5.71134779384104
"2171" 4 2 171 0 2.53026010454888
"2172" 4 2 172 1 7.73741711738124
"2173" 4 2 173 1 3.61563062003325
"2174" 4 2 174 1 2.92795828252076
"2175" 4 2 175 0 1.3910547432045
"2176" 4 2 176 1 2.37902831834159
"2177" 4 2 177 0 1.75886369805736
"2178" 4 2 178 0 0.961711646838114
"2179" 4 2 179 0 0.828682487342041
"2180" 4 2 180 0 0.970429061414907
"2181" 4 2 181 0 0.765154888831312
"2182" 4 2 182 0 0.704189192112768
"2183" 4 2 183 0 4.34584443126549
"2184" 4 2 184 0 0.991106406915234
"2185" 4 2 185 0 0.676257934883004
"2186" 4 2 186 1 1.72413497290318
"2187" 4 2 187 0 1.85942602894967
"2188" 4 2 188 1 1.46953926682356
"2189" 4 2 189 0 1.99898884466011
"2190" 4 2 190 0 1.0972425231121
"2191" 4 2 191 0 0.595217086574761
"2192" 4 2 192 0 2.67230921476078
"2193" 4 2 193 0 0.617347903759452
"2194" 4 2 194 0 1.11811195345153
"2195" 4 2 195 0 7.27874660271453
"2196" 4 2 196 0 1.30594176515378
"2197" 4 2 197 0 1.7366598059556
"2198" 4 2 198 0 0.559834453263786
"2199" 4 2 199 0 2.53781832097052
"2200" 4 2 200 0 0.556767736305716
"2201" 4 3 1 1 4.19761625790666
"2202" 4 3 2 1 1.3927031422609
"2203" 4 3 3 1 2.92249463691702
"2204" 4 3 4 1 0.938175312746083
"2205" 4 3 5 1 1.69608160126349
"2206" 4 3 6 0 1.04938232585508
"2207" 4 3 7 0 0.883603874431923
"2208" 4 3 8 1 2.51268402815308
"2209" 4 3 9 1 2.53080690475577
"2210" 4 3 10 0 1.27628793370025
"2211" 4 3 11 1 1.74354336885922
"2212" 4 3 12 1 1.67955069948151
"2213" 4 3 13 1 1.30151406811341
"2214" 4 3 14 0 0.569908261797158
"2215" 4 3 15 1 2.75081878104666
"2216" 4 3 16 1 1.53395593662234
"2217" 4 3 17 1 2.28169952300913
"2218" 4 3 18 1 1.8481457266158
"2219" 4 3 19 1 1.31037934326823
"2220" 4 3 20 1 1.01209036649182
"2221" 4 3 21 0 1.0202836221389
"2222" 4 3 22 0 0.868013433470158
"2223" 4 3 23 0 0.452224061977584
"2224" 4 3 24 1 2.89438002804434
"2225" 4 3 25 1 1.101576839532
"2226" 4 3 26 0 0.563741845261073
"2227" 4 3 27 1 1.78881587074767
"2228" 4 3 28 0 0.795159410625696
"2229" 4 3 29 1 0.784602443258977
"2230" 4 3 30 1 2.47038452311768
"2231" 4 3 31 1 1.12743062332948
"2232" 4 3 32 1 1.1393445059848
"2233" 4 3 33 1 1.9259208735018
"2234" 4 3 34 1 1.37965572446701
"2235" 4 3 35 1 1.25891373588797
"2236" 4 3 36 1 4.49206548774359
"2237" 4 3 37 0 0.492269582513021
"2238" 4 3 38 1 1.12669003788661
"2239" 4 3 39 1 1.613442980994
"2240" 4 3 40 1 1.69776561504765
"2241" 4 3 41 1 1.86333760606591
"2242" 4 3 42 1 2.12190093822079
"2243" 4 3 43 1 1.19914271378773
"2244" 4 3 44 1 1.35973129388597
"2245" 4 3 45 0 0.491313406617381
"2246" 4 3 46 1 1.99588934655115
"2247" 4 3 47 1 2.27253055070201
"2248" 4 3 48 1 2.46316104129003
"2249" 4 3 49 1 2.04960404770565
"2250" 4 3 50 0 0.677018737139646
"2251" 4 3 51 0 1.10568200644082
"2252" 4 3 52 1 1.55956794895814
"2253" 4 3 53 1 1.50872246378125
"2254" 4 3 54 1 1.70708369111177
"2255" 4 3 55 1 1.04465149331605
"2256" 4 3 56 1 1.05938235035585
"2257" 4 3 57 0 0.753558503126027
"2258" 4 3 58 1 1.0645871153851
"2259" 4 3 59 1 1.35022797656758
"2260" 4 3 60 1 1.16621760329069
"2261" 4 3 61 1 1.47794975199411
"2262" 4 3 62 1 0.79462874255213
"2263" 4 3 63 0 0.789668569266331
"2264" 4 3 64 1 1.59207327574072
"2265" 4 3 65 1 2.27789383498323
"2266" 4 3 66 0 0.989726404952351
"2267" 4 3 67 1 1.34301505414024
"2268" 4 3 68 1 3.23356710891146
"2269" 4 3 69 1 4.00083836745773
"2270" 4 3 70 1 1.19978423218685
"2271" 4 3 71 1 1.8061818474906
"2272" 4 3 72 1 2.33102862326428
"2273" 4 3 73 1 1.48003459455329
"2274" 4 3 74 1 1.98128914212855
"2275" 4 3 75 1 1.54638429233525
"2276" 4 3 76 1 0.881763000595151
"2277" 4 3 77 1 2.91115587987192
"2278" 4 3 78 1 1.80083806944755
"2279" 4 3 79 1 2.85624920847663
"2280" 4 3 80 1 2.46053943606536
"2281" 4 3 81 1 1.44722709709033
"2282" 4 3 82 1 1.61378496643715
"2283" 4 3 83 1 2.11395152361249
"2284" 4 3 84 1 0.98434040894662
"2285" 4 3 85 1 1.95825371481921
"2286" 4 3 86 1 2.69407028712472
"2287" 4 3 87 0 3.63764447136759
"2288" 4 3 88 1 3.63001975138602
"2289" 4 3 89 1 1.25414414219558
"2290" 4 3 90 1 1.64297902453667
"2291" 4 3 91 1 3.13855745820375
"2292" 4 3 92 1 1.56034148553922
"2293" 4 3 93 1 1.07985426785308
"2294" 4 3 94 1 1.06882994358055
"2295" 4 3 95 1 1.52644293239573
"2296" 4 3 96 0 1.0961843386204
"2297" 4 3 97 1 2.23703772875411
"2298" 4 3 98 1 2.30616293541994
"2299" 4 3 99 0 1.73608047526283
"2300" 4 3 100 0 0.996499483673368
"2301" 4 3 101 1 1.28111826262251
"2302" 4 3 102 1 2.93343304999382
"2303" 4 3 103 1 2.67381312663178
"2304" 4 3 104 1 1.62803144219308
"2305" 4 3 105 1 2.61225275747781
"2306" 4 3 106 1 2.000977436268
"2307" 4 3 107 1 1.7374685329115
"2308" 4 3 108 1 1.15488939056965
"2309" 4 3 109 1 1.21110751181119
"2310" 4 3 110 1 1.8298064918064
"2311" 4 3 111 0 0.524710969472071
"2312" 4 3 112 1 2.00509931147494
"2313" 4 3 113 1 1.23901423882577
"2314" 4 3 114 0 0.634518434904516
"2315" 4 3 115 1 1.08052143204166
"2316" 4 3 116 1 1.52592830572929
"2317" 4 3 117 1 1.9508182352602
"2318" 4 3 118 1 1.73738522816123
"2319" 4 3 119 0 1.18073900228739
"2320" 4 3 120 1 0.72819287121878
"2321" 4 3 121 1 1.42392621955415
"2322" 4 3 122 0 0.656669477176853
"2323" 4 3 123 1 0.844180531429825
"2324" 4 3 124 1 1.9009050834158
"2325" 4 3 125 1 0.826043517197482
"2326" 4 3 126 1 1.38585554831778
"2327" 4 3 127 1 3.57963559897523
"2328" 4 3 128 1 1.67559693547687
"2329" 4 3 129 1 1.36103550281958
"2330" 4 3 130 1 2.9411439538612
"2331" 4 3 131 1 1.34528241924406
"2332" 4 3 132 1 1.34543293016707
"2333" 4 3 133 1 1.74672637603129
"2334" 4 3 134 1 1.23433239274449
"2335" 4 3 135 1 1.04629556741379
"2336" 4 3 136 1 0.878827646295307
"2337" 4 3 137 1 0.850663141086698
"2338" 4 3 138 1 1.35861471165065
"2339" 4 3 139 0 0.544235726707615
"2340" 4 3 140 1 1.46345347360708
"2341" 4 3 141 1 1.67479857727513
"2342" 4 3 142 0 1.38543431408866
"2343" 4 3 143 1 1.96370343437302
"2344" 4 3 144 0 2.03815137954568
"2345" 4 3 145 1 1.47034456692706
"2346" 4 3 146 0 0.971890690432396
"2347" 4 3 147 1 4.12341134784953
"2348" 4 3 148 0 0.652827681779629
"2349" 4 3 149 1 1.57296993265837
"2350" 4 3 150 1 1.81403046837146
"2351" 4 3 151 1 1.2996300458468
"2352" 4 3 152 0 0.629572457052535
"2353" 4 3 153 1 1.73805628081341
"2354" 4 3 154 1 1.07663567540515
"2355" 4 3 155 1 3.3994562702293
"2356" 4 3 156 1 1.59545982066495
"2357" 4 3 157 1 1.66473783999495
"2358" 4 3 158 1 1.48400069982791
"2359" 4 3 159 1 2.06640466367686
"2360" 4 3 160 1 1.95998962620692
"2361" 4 3 161 1 1.80378933853284
"2362" 4 3 162 1 1.45391516158381
"2363" 4 3 163 1 2.72944078866439
"2364" 4 3 164 0 1.47081473461422
"2365" 4 3 165 1 4.27899234981881
"2366" 4 3 166 1 3.2832212409752
"2367" 4 3 167 1 3.44935246224795
"2368" 4 3 168 1 2.50077769309492
"2369" 4 3 169 1 1.37590890174545
"2370" 4 3 170 1 1.90406336190295
"2371" 4 3 171 1 0.949768798663514
"2372" 4 3 172 1 1.75863793791179
"2373" 4 3 173 1 1.94665347928903
"2374" 4 3 174 1 0.909005120403366
"2375" 4 3 175 0 0.443390867726644
"2376" 4 3 176 1 1.03331138946838
"2377" 4 3 177 1 2.22393390738824
"2378" 4 3 178 1 1.66438142918493
"2379" 4 3 179 1 1.61569985281024
"2380" 4 3 180 1 1.60760628542188
"2381" 4 3 181 1 1.67126361636375
"2382" 4 3 182 1 1.69612707836251
"2383" 4 3 183 1 1.56506392649724
"2384" 4 3 184 1 0.925011456936365
"2385" 4 3 185 1 3.01231102190237
"2386" 4 3 186 0 0.488688294714782
"2387" 4 3 187 1 3.19078639234742
"2388" 4 3 188 0 1.08111591018597
"2389" 4 3 189 1 4.0400318998429
"2390" 4 3 190 1 2.99000896205031
"2391" 4 3 191 1 1.96874576695915
"2392" 4 3 192 1 1.6248365680289
"2393" 4 3 193 1 1.08112638699939
"2394" 4 3 194 1 1.22736757689458
"2395" 4 3 195 0 0.485466334215365
"2396" 4 3 196 1 2.29559481811244
"2397" 4 3 197 1 2.75822003635578
"2398" 4 3 198 1 1.41462265630742
"2399" 4 3 199 1 1.31182433803799
"2400" 4 3 200 1 2.25369426293857
"2401" 5 1 1 1 0.495124675568193
"2402" 5 1 2 0 0.514581569670001
"2403" 5 1 3 0 0.400736057634465
"2404" 5 1 4 1 0.690233516542707
"2405" 5 1 5 0 0.368280579252867
"2406" 5 1 6 0 0.420479201346403
"2407" 5 1 7 0 0.352215389610035
"2408" 5 1 8 0 0.420798399927095
"2409" 5 1 9 0 0.398513029218651
"2410" 5 1 10 0 0.813044916055165
"2411" 5 1 11 1 1.72602136339527
"2412" 5 1 12 0 0.360073495031567
"2413" 5 1 13 0 0.561706315452466
"2414" 5 1 14 0 0.508697136316914
"2415" 5 1 15 0 0.411698525025044
"2416" 5 1 16 0 0.926082571768435
"2417" 5 1 17 1 1.80736762412894
"2418" 5 1 18 0 0.471587412989233
"2419" 5 1 19 0 0.397870834689122
"2420" 5 1 20 0 0.397296926120296
"2421" 5 1 21 0 0.662059442119906
"2422" 5 1 22 0 0.476532973353053
"2423" 5 1 23 0 0.98346741689695
"2424" 5 1 24 0 0.362323863399215
"2425" 5 1 25 1 1.37068133027712
"2426" 5 1 26 0 0.374942123314599
"2427" 5 1 27 0 0.406306372487452
"2428" 5 1 28 0 0.463448264530394
"2429" 5 1 29 1 0.413525391749572
"2430" 5 1 30 0 0.515046174873132
"2431" 5 1 31 0 0.914923827078892
"2432" 5 1 32 1 1.49583256464521
"2433" 5 1 33 0 0.789511280310107
"2434" 5 1 34 1 0.842402043603593
"2435" 5 1 35 1 0.573558569140267
"2436" 5 1 36 0 0.364220370639348
"2437" 5 1 37 0 0.654131701452192
"2438" 5 1 38 0 0.397708104672842
"2439" 5 1 39 0 0.442544494082686
"2440" 5 1 40 0 0.626644250133773
"2441" 5 1 41 1 1.12025430450519
"2442" 5 1 42 0 1.41961264151311
"2443" 5 1 43 0 0.614328516102396
"2444" 5 1 44 0 0.432481356200296
"2445" 5 1 45 0 0.434765655390685
"2446" 5 1 46 1 0.830363986253738
"2447" 5 1 47 0 0.368612212919164
"2448" 5 1 48 0 0.39572539355699
"2449" 5 1 49 0 0.731804545311257
"2450" 5 1 50 1 1.13506755432859
"2451" 5 1 51 1 0.719757676572073
"2452" 5 1 52 0 2.07155585619924
"2453" 5 1 53 0 0.38150212539034
"2454" 5 1 54 0 1.03511728257337
"2455" 5 1 55 1 1.01359109238861
"2456" 5 1 56 0 0.438200471250108
"2457" 5 1 57 1 0.682595015130239
"2458" 5 1 58 1 0.985253436760744
"2459" 5 1 59 0 0.934779593557818
"2460" 5 1 60 0 0.391002963516861
"2461" 5 1 61 1 0.667903345098719
"2462" 5 1 62 0 1.06470450400957
"2463" 5 1 63 1 0.620399547172012
"2464" 5 1 64 0 0.659456945508253
"2465" 5 1 65 0 0.437181305469712
"2466" 5 1 66 0 0.339170152080012
"2467" 5 1 67 0 0.703668749477016
"2468" 5 1 68 0 0.376836166077759
"2469" 5 1 69 0 0.365940060792724
"2470" 5 1 70 0 0.374527136014309
"2471" 5 1 71 0 0.678933244117768
"2472" 5 1 72 0 0.361863576518139
"2473" 5 1 73 0 0.53799599761772
"2474" 5 1 74 1 0.770893636317458
"2475" 5 1 75 0 1.00560736830463
"2476" 5 1 76 1 0.808394885827554
"2477" 5 1 77 1 0.569749891071348
"2478" 5 1 78 0 0.473376455200836
"2479" 5 1 79 1 1.14091369538568
"2480" 5 1 80 0 1.30065056323982
"2481" 5 1 81 1 1.04490099114622
"2482" 5 1 82 0 1.45804734231113
"2483" 5 1 83 1 0.812701558376895
"2484" 5 1 84 0 0.359696481905412
"2485" 5 1 85 0 0.506508696883218
"2486" 5 1 86 0 0.499413044125773
"2487" 5 1 87 0 0.840783512376715
"2488" 5 1 88 0 1.27934881893964
"2489" 5 1 89 1 1.1593951106586
"2490" 5 1 90 1 0.802072734196205
"2491" 5 1 91 1 0.682661743781064
"2492" 5 1 92 0 0.386163480650401
"2493" 5 1 93 1 0.699804571279325
"2494" 5 1 94 0 0.897763047759887
"2495" 5 1 95 1 0.529086821970064
"2496" 5 1 96 0 0.340959429059876
"2497" 5 1 97 0 0.392344453372993
"2498" 5 1 98 0 0.35259395689657
"2499" 5 1 99 0 0.727446888873354
"2500" 5 1 100 0 0.667321751927491
"2501" 5 1 101 0 0.40821909900615
"2502" 5 1 102 0 0.497799315250712
"2503" 5 1 103 1 1.53524361062865
"2504" 5 1 104 1 0.554327472656034
"2505" 5 1 105 1 1.08083469785796
"2506" 5 1 106 0 0.444325391326565
"2507" 5 1 107 0 0.530695007803151
"2508" 5 1 108 0 0.53880460499716
"2509" 5 1 109 0 0.824032307510264
"2510" 5 1 110 1 0.713348507002695
"2511" 5 1 111 0 0.646422515757149
"2512" 5 1 112 0 0.746662792273797
"2513" 5 1 113 0 1.13798293028865
"2514" 5 1 114 0 0.440635389366886
"2515" 5 1 115 1 0.683031308949925
"2516" 5 1 116 1 2.47135136411921
"2517" 5 1 117 0 0.503003377115354
"2518" 5 1 118 0 0.80789754606341
"2519" 5 1 119 0 0.495069107367657
"2520" 5 1 120 0 0.520304686412215
"2521" 5 1 121 0 1.03021022609621
"2522" 5 1 122 0 0.368933157056337
"2523" 5 1 123 0 0.372793918313459
"2524" 5 1 124 0 0.485927316106856
"2525" 5 1 125 0 0.848217362101423
"2526" 5 1 126 0 0.51113378749229
"2527" 5 1 127 0 0.3632903960736
"2528" 5 1 128 1 0.580715622275602
"2529" 5 1 129 1 0.526381532738451
"2530" 5 1 130 0 0.39642322622519
"2531" 5 1 131 1 0.50762031474011
"2532" 5 1 132 0 0.376418320209021
"2533" 5 1 133 0 0.532768532059388
"2534" 5 1 134 0 0.5491684758435
"2535" 5 1 135 1 1.32374893123005
"2536" 5 1 136 1 1.77674246634822
"2537" 5 1 137 1 0.742288191343425
"2538" 5 1 138 0 0.52615580144152
"2539" 5 1 139 0 0.450743791334564
"2540" 5 1 140 0 0.403632950005354
"2541" 5 1 141 1 0.686403291255003
"2542" 5 1 142 1 0.590655750494916
"2543" 5 1 143 0 0.473287544560153
"2544" 5 1 144 0 0.394986998500535
"2545" 5 1 145 0 0.410020264899358
"2546" 5 1 146 0 0.663585698010167
"2547" 5 1 147 0 0.349078884974821
"2548" 5 1 148 1 1.51229777760338
"2549" 5 1 149 0 0.344331416024128
"2550" 5 1 150 0 1.00856733480305
"2551" 5 1 151 0 0.48762996550207
"2552" 5 1 152 1 0.597169767627725
"2553" 5 1 153 1 0.462155125739751
"2554" 5 1 154 0 0.353635020912159
"2555" 5 1 155 0 0.36143347785878
"2556" 5 1 156 1 0.742109494369943
"2557" 5 1 157 0 0.490944155086763
"2558" 5 1 158 0 0.581992027498083
"2559" 5 1 159 0 0.352493143600645
"2560" 5 1 160 1 0.935135074785212
"2561" 5 1 161 0 0.526455619636457
"2562" 5 1 162 0 0.392406241403427
"2563" 5 1 163 0 0.384761463521514
"2564" 5 1 164 0 1.23063142313994
"2565" 5 1 165 1 0.509294297048356
"2566" 5 1 166 0 0.474558669302147
"2567" 5 1 167 0 0.363626351678045
"2568" 5 1 168 0 0.718879986682208
"2569" 5 1 169 0 1.31334623671207
"2570" 5 1 170 0 0.56114302180917
"2571" 5 1 171 0 0.537257377573289
"2572" 5 1 172 0 0.599974345448427
"2573" 5 1 173 1 0.663144154195907
"2574" 5 1 174 0 0.333232152605429
"2575" 5 1 175 1 0.580549990396481
"2576" 5 1 176 1 0.843909833296202
"2577" 5 1 177 1 1.09604622794897
"2578" 5 1 178 0 0.632494507822208
"2579" 5 1 179 0 0.642331386812031
"2580" 5 1 180 1 0.690019620127743
"2581" 5 1 181 0 0.526307237185305
"2582" 5 1 182 1 1.69709047274198
"2583" 5 1 183 0 0.459065583303804
"2584" 5 1 184 0 0.361884345016442
"2585" 5 1 185 0 0.449704148912802
"2586" 5 1 186 1 0.87460568882199
"2587" 5 1 187 1 0.749374373266939
"2588" 5 1 188 0 0.49651296322234
"2589" 5 1 189 1 1.01095328513463
"2590" 5 1 190 0 0.663370014914079
"2591" 5 1 191 0 0.880085144748446
"2592" 5 1 192 0 0.450612023724476
"2593" 5 1 193 0 0.846457488382235
"2594" 5 1 194 0 0.801699256243184
"2595" 5 1 195 1 0.587279581231764
"2596" 5 1 196 0 0.371091907339869
"2597" 5 1 197 0 0.590710175984539
"2598" 5 1 198 0 0.424157780043548
"2599" 5 1 199 0 0.347679063146468
"2600" 5 1 200 0 0.458421408641152
"2601" 5 2 1 0 0.877077799489256
"2602" 5 2 2 0 0.817710127131082
"2603" 5 2 3 0 0.60111564148264
"2604" 5 2 4 0 0.491072105174419
"2605" 5 2 5 0 0.720848344876431
"2606" 5 2 6 0 0.606788023188012
"2607" 5 2 7 1 1.15344171648775
"2608" 5 2 8 1 0.755430067857029
"2609" 5 2 9 0 0.789827625015285
"2610" 5 2 10 1 0.840339308292838
"2611" 5 2 11 0 0.608491520684911
"2612" 5 2 12 0 1.10078578398819
"2613" 5 2 13 0 1.07873195822514
"2614" 5 2 14 0 0.571221742256312
"2615" 5 2 15 0 0.478816062646452
"2616" 5 2 16 0 0.49570607267553
"2617" 5 2 17 0 0.509025943644112
"2618" 5 2 18 0 1.5920391577573
"2619" 5 2 19 0 0.524243580709212
"2620" 5 2 20 0 0.519881574474042
"2621" 5 2 21 0 1.31953027071338
"2622" 5 2 22 0 0.618294373021927
"2623" 5 2 23 0 0.484364249766571
"2624" 5 2 24 0 0.597482543859398
"2625" 5 2 25 1 1.12124737052224
"2626" 5 2 26 0 0.498148396028671
"2627" 5 2 27 0 0.674473183905473
"2628" 5 2 28 0 1.15645138750528
"2629" 5 2 29 1 1.08513876526873
"2630" 5 2 30 1 0.936160705113783
"2631" 5 2 31 0 0.592834475851851
"2632" 5 2 32 0 1.71589259681781
"2633" 5 2 33 0 1.16742770282156
"2634" 5 2 34 0 0.485979940549471
"2635" 5 2 35 0 0.611413395326352
"2636" 5 2 36 1 1.79351456964342
"2637" 5 2 37 0 0.587176423966885
"2638" 5 2 38 0 1.13616778851394
"2639" 5 2 39 0 0.496935790992342
"2640" 5 2 40 0 1.06831252363394
"2641" 5 2 41 1 1.3358733441222
"2642" 5 2 42 0 1.09874340527295
"2643" 5 2 43 0 1.13221516347374
"2644" 5 2 44 0 0.491338468056172
"2645" 5 2 45 0 1.04738302860199
"2646" 5 2 46 0 0.631411320780404
"2647" 5 2 47 1 1.05376720805466
"2648" 5 2 48 1 0.703248812587466
"2649" 5 2 49 1 0.714826773582725
"2650" 5 2 50 0 0.529627377810655
"2651" 5 2 51 0 0.496368870562874
"2652" 5 2 52 0 0.682264905500691
"2653" 5 2 53 1 1.15540709938272
"2654" 5 2 54 0 0.718947102084057
"2655" 5 2 55 1 0.709927766438574
"2656" 5 2 56 1 1.27480061678961
"2657" 5 2 57 1 0.984559066769667
"2658" 5 2 58 0 0.548960852195974
"2659" 5 2 59 0 0.503752806506352
"2660" 5 2 60 0 0.621055116111413
"2661" 5 2 61 0 0.53318129051337
"2662" 5 2 62 1 0.617771222070092
"2663" 5 2 63 0 0.554045907457592
"2664" 5 2 64 0 0.973112895291997
"2665" 5 2 65 0 0.677752759293653
"2666" 5 2 66 0 0.50480516548478
"2667" 5 2 67 0 0.858301454721252
"2668" 5 2 68 1 0.84338183606416
"2669" 5 2 69 0 0.540490868516499
"2670" 5 2 70 0 0.614433625990292
"2671" 5 2 71 0 1.39553106639278
"2672" 5 2 72 0 0.499456610464957
"2673" 5 2 73 0 0.507148849908961
"2674" 5 2 74 0 0.75006206494174
"2675" 5 2 75 0 0.573581031082431
"2676" 5 2 76 0 0.548125960082514
"2677" 5 2 77 0 0.781083173600258
"2678" 5 2 78 1 1.00727318770392
"2679" 5 2 79 0 0.621894430994988
"2680" 5 2 80 0 0.497666422149399
"2681" 5 2 81 0 1.11067044940381
"2682" 5 2 82 1 0.570295561198611
"2683" 5 2 83 0 1.76092823234829
"2684" 5 2 84 1 0.865514975840691
"2685" 5 2 85 0 0.497145856997929
"2686" 5 2 86 0 0.87261395215313
"2687" 5 2 87 0 0.538547033645678
"2688" 5 2 88 0 1.64616865751101
"2689" 5 2 89 0 0.594344408942852
"2690" 5 2 90 1 0.591228440419305
"2691" 5 2 91 0 0.758764969686745
"2692" 5 2 92 0 0.503975890833652
"2693" 5 2 93 0 0.511351907694014
"2694" 5 2 94 1 0.927297624868807
"2695" 5 2 95 0 0.845904275239678
"2696" 5 2 96 0 0.73890288848686
"2697" 5 2 97 0 0.746365149060031
"2698" 5 2 98 0 0.630794088894501
"2699" 5 2 99 0 0.563445895490237
"2700" 5 2 100 0 0.681595532492036
"2701" 5 2 101 0 0.655828552702209
"2702" 5 2 102 0 1.64535316132894
"2703" 5 2 103 0 1.3010874459839
"2704" 5 2 104 1 0.636222550642909
"2705" 5 2 105 1 0.752604431960965
"2706" 5 2 106 0 0.62630357208522
"2707" 5 2 107 1 1.07917324615526
"2708" 5 2 108 0 0.491669125818182
"2709" 5 2 109 0 0.504552923458396
"2710" 5 2 110 0 0.519976683700923
"2711" 5 2 111 0 0.686189518732717
"2712" 5 2 112 1 0.923888244731817
"2713" 5 2 113 1 0.600736027332256
"2714" 5 2 114 0 0.505788840532303
"2715" 5 2 115 0 1.1144445340042
"2716" 5 2 116 0 0.490800231023459
"2717" 5 2 117 1 1.3703257694284
"2718" 5 2 118 0 1.15535398648796
"2719" 5 2 119 0 0.623778463680064
"2720" 5 2 120 0 0.75345342896576
"2721" 5 2 121 0 0.716427158164093
"2722" 5 2 122 0 0.531908047125442
"2723" 5 2 123 0 0.663530836034333
"2724" 5 2 124 1 0.741751232756069
"2725" 5 2 125 0 1.58982983310521
"2726" 5 2 126 1 0.711627820470836
"2727" 5 2 127 0 1.08704184440011
"2728" 5 2 128 0 0.482846424493706
"2729" 5 2 129 0 0.760630295594921
"2730" 5 2 130 1 1.28582995430566
"2731" 5 2 131 0 0.634133733597351
"2732" 5 2 132 0 0.477759960892145
"2733" 5 2 133 1 0.709390962224221
"2734" 5 2 134 0 0.588233127471758
"2735" 5 2 135 0 0.722784177221824
"2736" 5 2 136 0 0.934917317501036
"2737" 5 2 137 0 0.727178216631059
"2738" 5 2 138 0 0.787384564027656
"2739" 5 2 139 0 0.700560602873564
"2740" 5 2 140 0 0.538172366567655
"2741" 5 2 141 0 0.625772517540725
"2742" 5 2 142 0 0.650542440838413
"2743" 5 2 143 1 0.741645524280844
"2744" 5 2 144 0 0.694535722466186
"2745" 5 2 145 0 0.55663351342408
"2746" 5 2 146 1 0.726226229120279
"2747" 5 2 147 0 0.71139046672266
"2748" 5 2 148 1 1.33541796355369
"2749" 5 2 149 0 0.738921118818689
"2750" 5 2 150 0 0.819956470483681
"2751" 5 2 151 0 0.496902120330604
"2752" 5 2 152 1 1.83044463950023
"2753" 5 2 153 0 0.555119983250508
"2754" 5 2 154 0 0.603597870872822
"2755" 5 2 155 0 0.551426544165937
"2756" 5 2 156 0 0.519097931363387
"2757" 5 2 157 1 0.64635880507133
"2758" 5 2 158 0 0.511795074891299
"2759" 5 2 159 0 0.535996798365377
"2760" 5 2 160 0 0.532572526297066
"2761" 5 2 161 0 0.53636812168546
"2762" 5 2 162 0 0.732765726829879
"2763" 5 2 163 0 0.543511121487478
"2764" 5 2 164 0 0.635718024148373
"2765" 5 2 165 0 0.527888492749073
"2766" 5 2 166 0 0.504530459057307
"2767" 5 2 167 0 0.555513744594529
"2768" 5 2 168 0 0.502756498083007
"2769" 5 2 169 0 0.531376059154514
"2770" 5 2 170 0 1.01182910655276
"2771" 5 2 171 0 0.690928360681748
"2772" 5 2 172 0 0.940040799905546
"2773" 5 2 173 0 0.506864074535901
"2774" 5 2 174 0 1.10553392874007
"2775" 5 2 175 0 0.759415753519163
"2776" 5 2 176 0 0.625140963435406
"2777" 5 2 177 0 0.643229674204485
"2778" 5 2 178 1 0.815642086569686
"2779" 5 2 179 0 0.909104088519234
"2780" 5 2 180 0 1.0729307972081
"2781" 5 2 181 0 0.56689617868443
"2782" 5 2 182 0 0.537473883187631
"2783" 5 2 183 1 0.760183033206733
"2784" 5 2 184 0 1.08948227539728
"2785" 5 2 185 1 0.745049560815562
"2786" 5 2 186 0 0.52988998388499
"2787" 5 2 187 0 1.09419240781665
"2788" 5 2 188 0 0.525558324082289
"2789" 5 2 189 0 0.600580079164589
"2790" 5 2 190 0 0.526529922429239
"2791" 5 2 191 0 0.558292156361742
"2792" 5 2 192 0 0.684951268376084
"2793" 5 2 193 0 0.509606359214522
"2794" 5 2 194 0 0.622378081666306
"2795" 5 2 195 0 0.629055382444058
"2796" 5 2 196 0 0.60620695319958
"2797" 5 2 197 0 0.769799931043526
"2798" 5 2 198 1 1.06421711793239
"2799" 5 2 199 0 0.504849535633344
"2800" 5 2 200 0 0.533678737360518
"2801" 5 3 1 0 1.24736741612945
"2802" 5 3 2 1 4.00406767189596
"2803" 5 3 3 0 0.554149453084683
"2804" 5 3 4 1 5.50942921170127
"2805" 5 3 5 0 0.549170948170824
"2806" 5 3 6 1 2.2675924966957
"2807" 5 3 7 1 1.26438388465671
"2808" 5 3 8 1 2.74948672980187
"2809" 5 3 9 0 1.82731643304694
"2810" 5 3 10 0 0.692652438796824
"2811" 5 3 11 0 0.519587029525312
"2812" 5 3 12 1 2.33377757610078
"2813" 5 3 13 1 1.80875927379401
"2814" 5 3 14 0 3.10852642154996
"2815" 5 3 15 1 2.8771438663248
"2816" 5 3 16 0 2.00206852457323
"2817" 5 3 17 1 3.21147120354231
"2818" 5 3 18 1 4.10074601863488
"2819" 5 3 19 0 0.599844903983874
"2820" 5 3 20 1 4.36260168642364
"2821" 5 3 21 0 1.52811715479475
"2822" 5 3 22 1 1.88068545055995
"2823" 5 3 23 0 0.562263205879601
"2824" 5 3 24 0 0.575602900673402
"2825" 5 3 25 0 0.779691298934398
"2826" 5 3 26 0 0.657047798007494
"2827" 5 3 27 1 1.56542245282629
"2828" 5 3 28 1 1.55507244329201
"2829" 5 3 29 1 0.994280953392387
"2830" 5 3 30 0 0.876125572314719
"2831" 5 3 31 1 1.15686006262223
"2832" 5 3 32 1 1.13253075644933
"2833" 5 3 33 1 2.04322532512713
"2834" 5 3 34 1 1.52751713133138
"2835" 5 3 35 0 0.8455147693248
"2836" 5 3 36 1 3.40289563033357
"2837" 5 3 37 1 1.61554869685113
"2838" 5 3 38 0 0.520651666417951
"2839" 5 3 39 0 1.18178629909409
"2840" 5 3 40 1 1.34951229591714
"2841" 5 3 41 0 0.507118821886135
"2842" 5 3 42 0 0.567278108415194
"2843" 5 3 43 0 0.490094704154646
"2844" 5 3 44 1 3.61986141145974
"2845" 5 3 45 0 1.53035345361521
"2846" 5 3 46 1 0.868360355267767
"2847" 5 3 47 0 1.35011502259667
"2848" 5 3 48 0 0.719710507051321
"2849" 5 3 49 0 0.802625917650061
"2850" 5 3 50 0 0.514208219225053
"2851" 5 3 51 1 1.31653130190447
"2852" 5 3 52 1 0.775086697309744
"2853" 5 3 53 1 1.44128850684175
"2854" 5 3 54 0 0.785305921755731
"2855" 5 3 55 0 2.95949943001266
"2856" 5 3 56 1 1.99963917061873
"2857" 5 3 57 0 0.691402639984619
"2858" 5 3 58 1 2.17565880924417
"2859" 5 3 59 1 1.08762280011666
"2860" 5 3 60 1 2.14455358460173
"2861" 5 3 61 1 3.13445429133764
"2862" 5 3 62 0 1.48241072273953
"2863" 5 3 63 0 0.634822634042474
"2864" 5 3 64 0 0.582979448610218
"2865" 5 3 65 0 1.14591178032244
"2866" 5 3 66 1 2.11634103221004
"2867" 5 3 67 0 1.72277625299012
"2868" 5 3 68 1 3.014963636745
"2869" 5 3 69 0 1.58942275403091
"2870" 5 3 70 0 1.32262043262972
"2871" 5 3 71 1 2.75952447272954
"2872" 5 3 72 1 1.8886700911615
"2873" 5 3 73 1 1.07539260912547
"2874" 5 3 74 1 3.43683568721009
"2875" 5 3 75 1 1.51611925352621
"2876" 5 3 76 0 0.539292806435144
"2877" 5 3 77 0 0.522657440786483
"2878" 5 3 78 0 0.514677109135315
"2879" 5 3 79 1 1.10081275558169
"2880" 5 3 80 0 1.40881334627746
"2881" 5 3 81 0 0.782840719393222
"2882" 5 3 82 0 0.58979838069086
"2883" 5 3 83 0 0.826303896513768
"2884" 5 3 84 0 0.848801777513698
"2885" 5 3 85 0 0.874932573709404
"2886" 5 3 86 1 2.02998906821804
"2887" 5 3 87 0 1.75968264354067
"2888" 5 3 88 0 0.803996974230511
"2889" 5 3 89 1 5.91189257709356
"2890" 5 3 90 0 3.03824661572976
"2891" 5 3 91 1 1.89517987149442
"2892" 5 3 92 0 0.529251122059301
"2893" 5 3 93 1 1.01727120021102
"2894" 5 3 94 0 0.566315462058643
"2895" 5 3 95 1 2.38583204551018
"2896" 5 3 96 1 1.88014938225551
"2897" 5 3 97 1 2.22470580341993
"2898" 5 3 98 1 1.11328054130194
"2899" 5 3 99 1 1.61123975629522
"2900" 5 3 100 1 1.82288311312324
"2901" 5 3 101 1 1.68837870802637
"2902" 5 3 102 0 1.22976913342602
"2903" 5 3 103 1 2.89363075419562
"2904" 5 3 104 1 1.80188426091545
"2905" 5 3 105 0 0.933053310337709
"2906" 5 3 106 1 2.08923095579562
"2907" 5 3 107 0 1.18888143297681
"2908" 5 3 108 0 1.92837317622174
"2909" 5 3 109 0 0.636118968698429
"2910" 5 3 110 1 1.66513276486821
"2911" 5 3 111 1 2.20257956071896
"2912" 5 3 112 0 1.23008791538654
"2913" 5 3 113 1 1.50598158430005
"2914" 5 3 114 0 0.816711072410457
"2915" 5 3 115 0 1.25184052629117
"2916" 5 3 116 0 1.59799238460814
"2917" 5 3 117 0 1.21494633696647
"2918" 5 3 118 0 0.601809213606175
"2919" 5 3 119 1 2.23604734966438
"2920" 5 3 120 0 0.854718507447513
"2921" 5 3 121 0 0.864561435368611
"2922" 5 3 122 0 0.918043155799154
"2923" 5 3 123 1 1.45968160150968
"2924" 5 3 124 1 1.83631219529477
"2925" 5 3 125 0 1.09953932081466
"2926" 5 3 126 1 3.36014225241868
"2927" 5 3 127 1 0.929474266578676
"2928" 5 3 128 0 0.665398036216153
"2929" 5 3 129 1 1.01079336132528
"2930" 5 3 130 1 3.74502648579539
"2931" 5 3 131 0 3.4558201954558
"2932" 5 3 132 1 1.41926966707944
"2933" 5 3 133 1 3.89607775658951
"2934" 5 3 134 0 0.935192812780617
"2935" 5 3 135 0 0.66062069322844
"2936" 5 3 136 1 2.75900049530598
"2937" 5 3 137 0 0.594737996827345
"2938" 5 3 138 1 1.53782551049464
"2939" 5 3 139 1 1.28872046252945
"2940" 5 3 140 0 2.81225687057292
"2941" 5 3 141 0 0.50118638514122
"2942" 5 3 142 0 1.67561539407331
"2943" 5 3 143 1 1.70057010091259
"2944" 5 3 144 0 0.677851461856859
"2945" 5 3 145 1 1.7424240755178
"2946" 5 3 146 0 0.794242898852797
"2947" 5 3 147 1 1.2019316680124
"2948" 5 3 148 1 2.37532075710595
"2949" 5 3 149 0 0.743899725812254
"2950" 5 3 150 0 0.770125701205805
"2951" 5 3 151 1 1.26564747806359
"2952" 5 3 152 0 0.537048522688914
"2953" 5 3 153 0 0.682494421320502
"2954" 5 3 154 0 0.696241441999562
"2955" 5 3 155 1 1.44152375485282
"2956" 5 3 156 0 0.560815675158985
"2957" 5 3 157 1 1.11752240794874
"2958" 5 3 158 0 1.33982063152408
"2959" 5 3 159 0 1.29033357091318
"2960" 5 3 160 1 1.91478074725741
"2961" 5 3 161 0 0.622061690061819
"2962" 5 3 162 1 1.62852283183392
"2963" 5 3 163 0 0.560076535633532
"2964" 5 3 164 0 0.613663465819554
"2965" 5 3 165 1 2.43554691556189
"2966" 5 3 166 1 2.39234447208396
"2967" 5 3 167 0 1.86757170084165
"2968" 5 3 168 0 1.59072611930547
"2969" 5 3 169 1 1.97137437982438
"2970" 5 3 170 0 1.27325554280239
"2971" 5 3 171 0 1.76063412108412
"2972" 5 3 172 1 1.50497979096114
"2973" 5 3 173 1 1.15576808823342
"2974" 5 3 174 1 1.03431875160919
"2975" 5 3 175 1 1.04086259002634
"2976" 5 3 176 1 0.985662149230018
"2977" 5 3 177 1 1.34754267856479
"2978" 5 3 178 1 3.78399107174017
"2979" 5 3 179 0 1.33444281220855
