"subjs" "conds" "trial" "choice" "rt"
"1" 1 1 1 1 0.73571060923487
"2" 1 1 2 1 0.416676291995216
"3" 1 1 3 1 0.537780188930687
"4" 1 1 4 1 0.593493720043451
"5" 1 1 5 1 0.650433917109855
"6" 1 1 6 1 0.474622308957856
"7" 1 1 7 1 0.372293057827279
"8" 1 1 8 0 2.57013112916285
"9" 1 1 9 0 1.33492284562532
"10" 1 1 10 1 0.839668232019059
"11" 1 1 11 1 0.709052995837759
"12" 1 1 12 1 0.53247146268934
"13" 1 1 13 1 1.6564775926061
"14" 1 1 14 1 2.06491456803167
"15" 1 1 15 1 0.57743284584675
"16" 1 1 16 0 1.70379597732425
"17" 1 1 17 1 0.597833729978185
"18" 1 1 18 0 0.457923490627203
"19" 1 1 19 1 0.409095567942131
"20" 1 1 20 0 0.612508995442186
"21" 1 1 21 1 0.491086097463034
"22" 1 1 22 0 1.00156166003784
"23" 1 1 23 0 1.26027554026246
"24" 1 1 24 1 0.590210923268925
"25" 1 1 25 1 0.688727837812621
"26" 1 1 26 0 0.708422430657782
"27" 1 1 27 0 0.573086169727147
"28" 1 1 28 1 0.959716254342813
"29" 1 1 29 1 0.462619924993254
"30" 1 1 30 1 0.329300088414457
"31" 1 1 31 1 1.4738121688012
"32" 1 1 32 1 0.366266403400339
"33" 1 1 33 1 0.490432369984686
"34" 1 1 34 1 0.518720052550547
"35" 1 1 35 1 0.513475493755657
"36" 1 1 36 1 0.661107996040024
"37" 1 1 37 1 0.361521662930958
"38" 1 1 38 1 1.93584625435015
"39" 1 1 39 1 0.372491455096286
"40" 1 1 40 1 0.61417221823521
"41" 1 1 41 0 4.25424015919911
"42" 1 1 42 1 0.338416342037264
"43" 1 1 43 1 0.345739290148485
"44" 1 1 44 1 0.385154953296762
"45" 1 1 45 1 0.380262785054278
"46" 1 1 46 0 1.03703299035784
"47" 1 1 47 1 0.80602674784977
"48" 1 1 48 1 0.354113061631098
"49" 1 1 49 0 0.602150519392453
"50" 1 1 50 1 0.710777802848723
"51" 1 1 51 1 3.97705675780214
"52" 1 1 52 1 0.373784229646902
"53" 1 1 53 1 0.829764455060009
"54" 1 1 54 1 0.299101218981668
"55" 1 1 55 1 0.54807296779519
"56" 1 1 56 1 0.42792960465746
"57" 1 1 57 1 0.468701418105979
"58" 1 1 58 1 0.960180133504327
"59" 1 1 59 1 0.927622088942677
"60" 1 1 60 1 1.45139571516961
"61" 1 1 61 1 0.318255545844324
"62" 1 1 62 1 0.353332635451574
"63" 1 1 63 1 0.672399669847451
"64" 1 1 64 1 0.579740409003105
"65" 1 1 65 1 0.406801996620838
"66" 1 1 66 1 0.63688346693432
"67" 1 1 67 0 1.59629581969697
"68" 1 1 68 1 1.29080345171923
"69" 1 1 69 0 0.459465400792193
"70" 1 1 70 1 1.69562911642762
"71" 1 1 71 1 0.482899147713557
"72" 1 1 72 1 0.396155238930136
"73" 1 1 73 1 0.430504732771777
"74" 1 1 74 1 0.341272738947999
"75" 1 1 75 1 2.09234187367978
"76" 1 1 76 1 0.604389325686265
"77" 1 1 77 1 0.68335863193823
"78" 1 1 78 0 0.857500597941224
"79" 1 1 79 1 0.362961035727523
"80" 1 1 80 1 1.26676964707952
"81" 1 1 81 1 0.512227380663622
"82" 1 1 82 0 1.13760451758979
"83" 1 1 83 1 1.75661129835155
"84" 1 1 84 1 0.488646796456073
"85" 1 1 85 1 1.91867977078725
"86" 1 1 86 1 0.451583778141532
"87" 1 1 87 1 0.459626017875038
"88" 1 1 88 1 0.452921434041113
"89" 1 1 89 0 0.701629770072643
"90" 1 1 90 0 0.847186317265965
"91" 1 1 91 1 0.409426307685208
"92" 1 1 92 1 0.48169487354951
"93" 1 1 93 1 0.310362280064728
"94" 1 1 94 1 0.731543575891294
"95" 1 1 95 1 2.80947244143765
"96" 1 1 96 0 1.67537290682411
"97" 1 1 97 1 0.979663880183827
"98" 1 1 98 1 0.282595448240172
"99" 1 1 99 1 0.522573713639285
"100" 1 1 100 0 1.21469304567063
"101" 1 1 101 1 0.496050587435719
"102" 1 1 102 0 0.427655784234405
"103" 1 1 103 1 0.470629528394435
"104" 1 1 104 1 2.63054147300636
"105" 1 1 105 1 0.327471829242539
"106" 1 1 106 1 0.454004511347972
"107" 1 1 107 1 1.3292926977044
"108" 1 1 108 0 0.446804297997151
"109" 1 1 109 1 0.403828926155344
"110" 1 1 110 1 1.30830386653263
"111" 1 1 111 1 0.418789968343452
"112" 1 1 112 0 1.47192264894163
"113" 1 1 113 1 0.836989979733713
"114" 1 1 114 1 1.59430966516957
"115" 1 1 115 1 0.382933340561111
"116" 1 1 116 0 0.468576380127575
"117" 1 1 117 1 0.569514020082075
"118" 1 1 118 1 1.01277603040962
"119" 1 1 119 1 0.316049918155652
"120" 1 1 120 1 0.471393861009739
"121" 1 1 121 1 0.491252043837216
"122" 1 1 122 1 1.09877844974492
"123" 1 1 123 1 0.498408870093059
"124" 1 1 124 1 0.451002857158426
"125" 1 1 125 1 0.540852943332866
"126" 1 1 126 0 0.501701763075776
"127" 1 1 127 1 0.89506317303516
"128" 1 1 128 1 0.609420271776617
"129" 1 1 129 1 0.416730978809297
"130" 1 1 130 1 0.385630104455166
"131" 1 1 131 0 0.673399689953774
"132" 1 1 132 1 1.48626354578556
"133" 1 1 133 0 1.46986815923499
"134" 1 1 134 1 0.323913932269439
"135" 1 1 135 1 0.394583145734854
"136" 1 1 136 1 1.13047818264365
"137" 1 1 137 1 0.561241515203379
"138" 1 1 138 0 2.2091099053123
"139" 1 1 139 0 0.754394680650439
"140" 1 1 140 0 1.4268355878843
"141" 1 1 141 0 1.58371140945656
"142" 1 1 142 0 0.847439890382346
"143" 1 1 143 1 0.446739736303221
"144" 1 1 144 0 0.649513107941486
"145" 1 1 145 1 0.591696911953855
"146" 1 1 146 1 0.487739247959573
"147" 1 1 147 1 0.567362198363058
"148" 1 1 148 1 0.327338924926706
"149" 1 1 149 1 0.378137178708799
"150" 1 1 150 1 1.22580669928296
"151" 1 1 151 1 0.49550185217429
"152" 1 1 152 1 0.393202322288882
"153" 1 1 153 0 0.538119038816076
"154" 1 1 154 1 0.515328310199548
"155" 1 1 155 1 0.523493363696151
"156" 1 1 156 1 1.40703134931903
"157" 1 1 157 1 0.766257698297501
"158" 1 1 158 0 2.86329064397281
"159" 1 1 159 1 0.45722470458271
"160" 1 1 160 1 0.778933618365321
"161" 1 1 161 1 0.42545876792632
"162" 1 1 162 1 0.451933296369389
"163" 1 1 163 0 1.70621121969307
"164" 1 1 164 1 0.828281225403305
"165" 1 1 165 1 0.610603115556296
"166" 1 1 166 1 0.882445032644551
"167" 1 1 167 1 0.702421603140887
"168" 1 1 168 1 0.502188089720905
"169" 1 1 169 1 0.724428586700931
"170" 1 1 170 0 0.730962015991565
"171" 1 1 171 1 0.601587671763729
"172" 1 1 172 1 1.49686418240564
"173" 1 1 173 1 0.51927382396115
"174" 1 1 174 1 0.647648895837832
"175" 1 1 175 1 2.10554710656684
"176" 1 1 176 0 0.569091459160671
"177" 1 1 177 1 0.33486082419334
"178" 1 1 178 1 0.663202942941338
"179" 1 1 179 0 0.972939817872364
"180" 1 1 180 1 0.495386091054883
"181" 1 1 181 1 0.513207466319203
"182" 1 1 182 1 4.01181899454445
"183" 1 1 183 0 1.2893911350118
"184" 1 1 184 1 0.434616817899514
"185" 1 1 185 1 1.13426527739875
"186" 1 1 186 1 0.663176681001205
"187" 1 1 187 1 3.54738713515922
"188" 1 1 188 1 0.852801501096692
"189" 1 1 189 1 3.83468921183562
"190" 1 1 190 1 0.480154579609167
"191" 1 1 191 1 0.62210108034173
"192" 1 1 192 1 0.915738751844969
"193" 1 1 193 0 0.9176511878171
"194" 1 1 194 0 1.13347733211843
"195" 1 1 195 1 0.843810637169052
"196" 1 1 196 1 0.498611776177771
"197" 1 1 197 1 0.92110591054894
"198" 1 1 198 1 0.288774282275699
"199" 1 1 199 1 0.411688287441619
"200" 1 1 200 1 0.929882188742515
"201" 2 1 1 1 0.463540116795804
"202" 2 1 2 1 0.591465099274647
"203" 2 1 3 1 0.851481109312735
"204" 2 1 4 1 0.582253661072813
"205" 2 1 5 1 0.507057457471266
"206" 2 1 6 1 1.35762006367836
"207" 2 1 7 1 0.843508701503743
"208" 2 1 8 1 0.579777899963316
"209" 2 1 9 1 0.723818106556311
"210" 2 1 10 1 0.629572717700619
"211" 2 1 11 0 0.478927792069037
"212" 2 1 12 1 0.938728809239809
"213" 2 1 13 1 0.307290589020122
"214" 2 1 14 1 0.305828869567718
"215" 2 1 15 1 0.548530634444207
"216" 2 1 16 1 1.28124361975258
"217" 2 1 17 1 0.340524184396025
"218" 2 1 18 1 2.52343226430984
"219" 2 1 19 0 0.60116604815051
"220" 2 1 20 1 0.514189924398437
"221" 2 1 21 0 0.44253068234073
"222" 2 1 22 0 0.50428174257325
"223" 2 1 23 1 0.312788800615352
"224" 2 1 24 1 0.72974280883139
"225" 2 1 25 1 0.663917924928479
"226" 2 1 26 1 0.600155364789534
"227" 2 1 27 1 0.501826747717801
"228" 2 1 28 0 0.750869162920862
"229" 2 1 29 1 0.600016932361759
"230" 2 1 30 0 2.10302424373431
"231" 2 1 31 1 0.56732236678293
"232" 2 1 32 0 0.606210240022279
"233" 2 1 33 1 0.538945670915768
"234" 2 1 34 0 0.471778581283521
"235" 2 1 35 1 1.22017786760489
"236" 2 1 36 1 0.382676353675313
"237" 2 1 37 0 0.467271648038179
"238" 2 1 38 1 0.494340651433449
"239" 2 1 39 1 0.529271793674212
"240" 2 1 40 0 1.09042795298575
"241" 2 1 41 1 1.37237119708816
"242" 2 1 42 1 0.548514983765781
"243" 2 1 43 0 1.40667974723922
"244" 2 1 44 1 0.61048452360509
"245" 2 1 45 1 0.297373008549213
"246" 2 1 46 1 0.528911320099607
"247" 2 1 47 0 0.637359427153599
"248" 2 1 48 1 1.11280063398229
"249" 2 1 49 1 0.38882087197667
"250" 2 1 50 1 0.368938695142046
"251" 2 1 51 1 0.60415261852555
"252" 2 1 52 1 0.599677822358441
"253" 2 1 53 1 0.491134008442052
"254" 2 1 54 1 0.725735691315029
"255" 2 1 55 1 1.10184593732236
"256" 2 1 56 1 0.519192677423358
"257" 2 1 57 1 1.49763604393229
"258" 2 1 58 1 0.465736870547291
"259" 2 1 59 1 0.458888265990187
"260" 2 1 60 1 0.835292632584926
"261" 2 1 61 1 0.432421910880599
"262" 2 1 62 1 0.978720543631818
"263" 2 1 63 0 0.465131645071786
"264" 2 1 64 1 0.50900933839241
"265" 2 1 65 0 0.60739201739477
"266" 2 1 66 1 0.395228427324444
"267" 2 1 67 1 0.504394416268449
"268" 2 1 68 1 0.313306654325221
"269" 2 1 69 1 2.56870956731262
"270" 2 1 70 1 0.438676224334631
"271" 2 1 71 1 0.401539559816942
"272" 2 1 72 1 0.462056052625179
"273" 2 1 73 1 0.332863481275272
"274" 2 1 74 1 2.42186090794671
"275" 2 1 75 1 0.372132010369096
"276" 2 1 76 1 0.451103067256976
"277" 2 1 77 1 0.590926609841175
"278" 2 1 78 1 0.628278612930328
"279" 2 1 79 0 1.23623892578436
"280" 2 1 80 1 0.419847893586382
"281" 2 1 81 1 0.542438263552263
"282" 2 1 82 0 0.607379679881502
"283" 2 1 83 0 1.05520348972036
"284" 2 1 84 1 1.91073649310367
"285" 2 1 85 0 1.0956542272782
"286" 2 1 86 1 1.19124716130225
"287" 2 1 87 1 0.473045154201333
"288" 2 1 88 1 0.713804454794154
"289" 2 1 89 1 0.709171532443259
"290" 2 1 90 1 0.442800703274086
"291" 2 1 91 1 0.550143370766193
"292" 2 1 92 1 0.490369216657709
"293" 2 1 93 1 0.456566399378236
"294" 2 1 94 1 1.66470756537793
"295" 2 1 95 1 0.459558024093509
"296" 2 1 96 1 0.363576490518637
"297" 2 1 97 1 2.17410195009783
"298" 2 1 98 1 0.700167881225701
"299" 2 1 99 1 0.573833885851782
"300" 2 1 100 0 1.3192759585334
"301" 2 1 101 1 0.57739991194848
"302" 2 1 102 1 0.664586674459744
"303" 2 1 103 0 0.692106044983957
"304" 2 1 104 1 2.87853690203186
"305" 2 1 105 1 0.464757308608852
"306" 2 1 106 1 0.556231315579731
"307" 2 1 107 0 0.843788835145999
"308" 2 1 108 0 0.704015997199807
"309" 2 1 109 0 1.50844436784694
"310" 2 1 110 1 0.7729088464831
"311" 2 1 111 0 1.20924220800726
"312" 2 1 112 1 0.489660342685878
"313" 2 1 113 1 0.403484349631239
"314" 2 1 114 0 1.05438491949532
"315" 2 1 115 0 0.817418985032942
"316" 2 1 116 1 0.6832238461175
"317" 2 1 117 1 0.344967312871479
"318" 2 1 118 1 0.388390440985095
"319" 2 1 119 1 0.496961820702534
"320" 2 1 120 0 0.687662220780272
"321" 2 1 121 1 0.568002499605529
"322" 2 1 122 1 1.2487731702188
"323" 2 1 123 1 0.359200574368704
"324" 2 1 124 1 0.450172133299522
"325" 2 1 125 1 0.642339364419226
"326" 2 1 126 1 0.824058024591301
"327" 2 1 127 1 0.451084932945203
"328" 2 1 128 0 0.917288029937539
"329" 2 1 129 1 0.432109164963011
"330" 2 1 130 1 1.57872244739858
"331" 2 1 131 0 0.826783027511556
"332" 2 1 132 1 0.616180423777085
"333" 2 1 133 1 0.453862868518569
"334" 2 1 134 1 1.78958460759558
"335" 2 1 135 1 2.33203358214255
"336" 2 1 136 1 0.416156040748116
"337" 2 1 137 0 0.850756945012603
"338" 2 1 138 1 1.80793923818506
"339" 2 1 139 1 2.61178944958001
"340" 2 1 140 1 0.498253490580246
"341" 2 1 141 1 0.40288261077879
"342" 2 1 142 0 1.488983043944
"343" 2 1 143 1 1.36405084709916
"344" 2 1 144 1 0.603743659055792
"345" 2 1 145 1 1.12427715405496
"346" 2 1 146 0 0.709532133714296
"347" 2 1 147 1 1.67980204718374
"348" 2 1 148 1 0.525899241123814
"349" 2 1 149 1 0.30138349947473
"350" 2 1 150 1 0.537104701256845
"351" 2 1 151 1 0.807235041743144
"352" 2 1 152 1 0.596594829891343
"353" 2 1 153 1 0.339155049928464
"354" 2 1 154 1 0.545144284248818
"355" 2 1 155 1 0.380970530706923
"356" 2 1 156 1 0.440383358961437
"357" 2 1 157 1 0.591770432100166
"358" 2 1 158 1 0.89923852723185
"359" 2 1 159 0 1.83248936099233
"360" 2 1 160 1 0.431658686743584
"361" 2 1 161 1 0.337331628719345
"362" 2 1 162 1 0.601531739780679
"363" 2 1 163 1 0.445102709656116
"364" 2 1 164 1 0.407311744813807
"365" 2 1 165 1 0.452384332927875
"366" 2 1 166 1 0.586625418869779
"367" 2 1 167 1 0.650187071222812
"368" 2 1 168 1 1.74615859709913
"369" 2 1 169 1 1.12652204452781
"370" 2 1 170 1 0.5543318824335
"371" 2 1 171 1 0.368450857909396
"372" 2 1 172 1 0.913328615169506
"373" 2 1 173 1 0.447907018055208
"374" 2 1 174 1 0.59462040345883
"375" 2 1 175 1 0.531091255938634
"376" 2 1 176 1 0.420830222577322
"377" 2 1 177 1 0.473537674619351
"378" 2 1 178 1 0.477803569813259
"379" 2 1 179 1 0.530307018546388
"380" 2 1 180 1 0.607835784558207
"381" 2 1 181 1 0.80530436368892
"382" 2 1 182 1 1.34455679747602
"383" 2 1 183 1 2.21831985809328
"384" 2 1 184 0 0.544110377683304
"385" 2 1 185 1 0.76454869748326
"386" 2 1 186 0 1.35117299189232
"387" 2 1 187 0 1.87216857987363
"388" 2 1 188 1 1.01793609193014
"389" 2 1 189 0 0.487578973942436
"390" 2 1 190 1 0.416285478892271
"391" 2 1 191 1 0.711018860619981
"392" 2 1 192 1 0.946233131976333
"393" 2 1 193 1 0.574883684475906
"394" 2 1 194 0 1.08005372376367
"395" 2 1 195 1 0.53729532181751
"396" 2 1 196 1 0.341843493176624
"397" 2 1 197 1 0.418525493628811
"398" 2 1 198 0 1.05861643003579
"399" 2 1 199 1 0.786693990776781
"400" 2 1 200 1 0.56480774189299
"401" 3 1 1 1 0.61691172340326
"402" 3 1 2 1 0.788087136075832
"403" 3 1 3 1 1.32609206094453
"404" 3 1 4 1 0.5172746141362
"405" 3 1 5 1 0.374551423191093
"406" 3 1 6 1 0.611057503824588
"407" 3 1 7 1 0.502986862808
"408" 3 1 8 1 0.426348642561119
"409" 3 1 9 1 0.763428847347386
"410" 3 1 10 1 2.73267193645146
"411" 3 1 11 0 1.44764939988684
"412" 3 1 12 0 2.63506571723614
"413" 3 1 13 1 0.400501344004646
"414" 3 1 14 0 2.4764642080795
"415" 3 1 15 0 0.973910956116859
"416" 3 1 16 1 0.384720764494035
"417" 3 1 17 1 0.496725606805179
"418" 3 1 18 1 0.355015675416216
"419" 3 1 19 1 0.402695586918388
"420" 3 1 20 1 0.581156559197698
"421" 3 1 21 0 0.465412422793452
"422" 3 1 22 1 0.860580640605185
"423" 3 1 23 0 1.80452908986108
"424" 3 1 24 1 0.317742220387328
"425" 3 1 25 1 0.454565728630871
"426" 3 1 26 0 0.62687365987571
"427" 3 1 27 1 0.476224980224855
"428" 3 1 28 1 1.2082395617743
"429" 3 1 29 1 0.80052264088532
"430" 3 1 30 1 0.309199029963929
"431" 3 1 31 1 0.371575034781359
"432" 3 1 32 1 0.469166643335018
"433" 3 1 33 0 0.431966548355762
"434" 3 1 34 0 0.387813926790375
"435" 3 1 35 1 0.697522134792991
"436" 3 1 36 1 0.550602619126439
"437" 3 1 37 1 0.428469987403601
"438" 3 1 38 0 0.461758113611955
"439" 3 1 39 1 0.4083069623271
"440" 3 1 40 1 0.962725906984881
"441" 3 1 41 0 0.732551849147305
"442" 3 1 42 1 0.54908351991605
"443" 3 1 43 1 0.939813347059768
"444" 3 1 44 1 0.610712794244755
"445" 3 1 45 1 0.518826511160005
"446" 3 1 46 0 1.02187293272233
"447" 3 1 47 0 1.53672128693433
"448" 3 1 48 1 0.438646380675025
"449" 3 1 49 1 1.28077091423329
"450" 3 1 50 1 0.898754226329271
"451" 3 1 51 1 0.403723548190668
"452" 3 1 52 1 0.691234463272151
"453" 3 1 53 1 0.55677778699249
"454" 3 1 54 1 0.315873405031394
"455" 3 1 55 1 1.13600569193438
"456" 3 1 56 0 0.711290449614637
"457" 3 1 57 0 1.52208130080951
"458" 3 1 58 0 0.588958737242967
"459" 3 1 59 1 1.01835631791828
"460" 3 1 60 0 0.3462323579886
"461" 3 1 61 1 0.513296472546644
"462" 3 1 62 1 0.644373500318266
"463" 3 1 63 1 0.526566357452422
"464" 3 1 64 1 0.527150357452221
"465" 3 1 65 1 0.829323457279708
"466" 3 1 66 1 3.71457189594582
"467" 3 1 67 1 0.498254518788774
"468" 3 1 68 1 0.435688671010081
"469" 3 1 69 1 0.442272829034366
"470" 3 1 70 1 0.721129893165547
"471" 3 1 71 0 0.505009310815483
"472" 3 1 72 0 2.7782974371193
"473" 3 1 73 0 0.648339031710755
"474" 3 1 74 1 0.486557559088338
"475" 3 1 75 1 0.738445417610463
"476" 3 1 76 1 0.492154828285333
"477" 3 1 77 1 0.690207585953176
"478" 3 1 78 1 0.704523642028682
"479" 3 1 79 1 1.7345047733197
"480" 3 1 80 1 0.361626615082379
"481" 3 1 81 1 0.642876732300036
"482" 3 1 82 1 1.24963932842854
"483" 3 1 83 0 0.584697704568505
"484" 3 1 84 1 0.767576329566073
"485" 3 1 85 1 0.768242092887871
"486" 3 1 86 1 0.789443662566133
"487" 3 1 87 1 0.365359339705668
"488" 3 1 88 1 0.432580825298559
"489" 3 1 89 1 0.557101679095533
"490" 3 1 90 0 0.760879665052984
"491" 3 1 91 1 0.32165977355605
"492" 3 1 92 1 0.347196544584818
"493" 3 1 93 1 0.376248763998039
"494" 3 1 94 0 1.20599871153897
"495" 3 1 95 1 0.399125522780232
"496" 3 1 96 1 0.466518350526225
"497" 3 1 97 1 0.516792099511717
"498" 3 1 98 1 0.488661940705963
"499" 3 1 99 1 0.323272777906153
"500" 3 1 100 1 1.26583725332003
"501" 3 1 101 1 0.452224290676881
"502" 3 1 102 1 1.33442349330988
"503" 3 1 103 1 0.33904586359812
"504" 3 1 104 0 0.782952736186329
"505" 3 1 105 1 0.502081043608952
"506" 3 1 106 1 0.352984962867573
"507" 3 1 107 0 0.563072822449263
"508" 3 1 108 1 0.404208727404475
"509" 3 1 109 1 1.39192112577055
"510" 3 1 110 0 1.31823178063706
"511" 3 1 111 1 0.549593278204557
"512" 3 1 112 1 0.5587286791238
"513" 3 1 113 0 0.662711253323127
"514" 3 1 114 1 0.330133483705576
"515" 3 1 115 0 0.716064229529351
"516" 3 1 116 1 0.561111044856254
"517" 3 1 117 0 0.417695148673374
"518" 3 1 118 1 0.724935725761577
"519" 3 1 119 1 0.32615734304674
"520" 3 1 120 0 1.42655140010919
"521" 3 1 121 0 1.53078083171882
"522" 3 1 122 0 0.437838020952884
"523" 3 1 123 1 1.71707250916353
"524" 3 1 124 1 0.330309099615086
"525" 3 1 125 0 0.370298795388546
"526" 3 1 126 1 0.686242175292689
"527" 3 1 127 1 0.670451943305787
"528" 3 1 128 1 0.340631061912514
"529" 3 1 129 1 0.375457254370675
"530" 3 1 130 0 0.428204573162366
"531" 3 1 131 1 0.552641095721163
"532" 3 1 132 0 0.7079609787683
"533" 3 1 133 1 1.08358238459239
"534" 3 1 134 0 0.550003467597533
"535" 3 1 135 1 0.563546551194508
"536" 3 1 136 0 0.543428447145037
"537" 3 1 137 1 0.61153928478295
"538" 3 1 138 1 0.610177967993077
"539" 3 1 139 1 1.6839342823904
"540" 3 1 140 0 1.47657706983853
"541" 3 1 141 1 0.58579882345954
"542" 3 1 142 1 0.521121843532193
"543" 3 1 143 0 0.383197433329653
"544" 3 1 144 1 0.586383162194863
"545" 3 1 145 1 0.332614421586972
"546" 3 1 146 1 0.517415995628573
"547" 3 1 147 1 0.362845860727597
"548" 3 1 148 1 0.490988592940383
"549" 3 1 149 1 0.46190317916777
"550" 3 1 150 1 0.382986894165166
"551" 3 1 151 0 0.439381606171373
"552" 3 1 152 1 0.364299077914096
"553" 3 1 153 0 0.297625495994929
"554" 3 1 154 1 0.514095985432155
"555" 3 1 155 1 0.784271353925578
"556" 3 1 156 0 1.18610334091866
"557" 3 1 157 0 0.598100068591535
"558" 3 1 158 0 0.996652192689013
"559" 3 1 159 1 0.333429788813926
"560" 3 1 160 0 0.642341089016292
"561" 3 1 161 0 0.519043586467393
"562" 3 1 162 1 0.874580052974168
"563" 3 1 163 0 0.539788852326572
"564" 3 1 164 1 1.72473056234559
"565" 3 1 165 1 0.530087465937249
"566" 3 1 166 1 0.382336410472169
"567" 3 1 167 1 0.569111097627319
"568" 3 1 168 1 0.51790058742417
"569" 3 1 169 1 0.468030965960119
"570" 3 1 170 1 0.5638646810879
"571" 3 1 171 1 0.338703652125318
"572" 3 1 172 1 1.13935736810183
"573" 3 1 173 0 1.287284534181
"574" 3 1 174 1 0.3549602716933
"575" 3 1 175 1 0.980941814729944
"576" 3 1 176 1 1.06447030519228
"577" 3 1 177 1 0.397830851126462
"578" 3 1 178 1 0.746088552553672
"579" 3 1 179 0 2.17380419726204
"580" 3 1 180 1 0.837444078939036
"581" 3 1 181 1 0.586759066468105
"582" 3 1 182 1 0.480739003647584
"583" 3 1 183 1 0.465348216712941
"584" 3 1 184 1 0.477168222884182
"585" 3 1 185 1 0.589806302341167
"586" 3 1 186 1 0.520166455612052
"587" 3 1 187 1 0.727105786879081
"588" 3 1 188 0 1.23209500181209
"589" 3 1 189 1 0.645352228904609
"590" 3 1 190 1 0.841876596116927
"591" 3 1 191 1 0.539104939138051
"592" 3 1 192 1 0.572739924811758
"593" 3 1 193 1 0.669127526673954
"594" 3 1 194 1 0.589947991220281
"595" 3 1 195 1 0.920042246180586
"596" 3 1 196 1 0.99009255126724
"597" 3 1 197 0 0.575954839979764
"598" 3 1 198 0 0.969693538102787
"599" 3 1 199 1 0.597663489104249
"600" 3 1 200 1 1.52376232299302
"601" 4 1 1 0 0.463099779117387
"602" 4 1 2 1 1.20206156841293
"603" 4 1 3 1 0.345812012210023
"604" 4 1 4 1 0.737596499441657
"605" 4 1 5 0 1.12151818872476
"606" 4 1 6 1 1.03669195035752
"607" 4 1 7 1 0.641745430378243
"608" 4 1 8 1 0.691670019179583
"609" 4 1 9 1 0.712854463334661
"610" 4 1 10 0 0.562173519465607
"611" 4 1 11 1 0.680053764095064
"612" 4 1 12 0 1.88330023715133
"613" 4 1 13 1 0.601843263030052
"614" 4 1 14 1 0.911805820600595
"615" 4 1 15 1 0.330446555311792
"616" 4 1 16 0 0.496878022545017
"617" 4 1 17 1 0.346179614281282
"618" 4 1 18 1 0.654776521438267
"619" 4 1 19 1 0.872228509456851
"620" 4 1 20 1 0.338048069712706
"621" 4 1 21 1 0.419109658944886
"622" 4 1 22 1 0.57380666653486
"623" 4 1 23 1 0.354160921492614
"624" 4 1 24 1 0.711504703163635
"625" 4 1 25 0 0.696238605009392
"626" 4 1 26 1 0.424974835350644
"627" 4 1 27 1 1.444476543108
"628" 4 1 28 1 0.570727023085579
"629" 4 1 29 1 1.75164985136827
"630" 4 1 30 1 1.10513964736415
"631" 4 1 31 1 0.692174289017916
"632" 4 1 32 1 1.25704264557036
"633" 4 1 33 1 0.576836508461274
"634" 4 1 34 1 0.568162220618688
"635" 4 1 35 1 0.30990208718786
"636" 4 1 36 1 0.800184620670043
"637" 4 1 37 1 1.63027337061008
"638" 4 1 38 0 2.56892642136477
"639" 4 1 39 1 1.09318140608585
"640" 4 1 40 0 2.37447291439027
"641" 4 1 41 1 0.728716466240119
"642" 4 1 42 1 1.23033854747703
"643" 4 1 43 1 0.391046334970277
"644" 4 1 44 1 0.520993860531133
"645" 4 1 45 1 0.569494003065862
"646" 4 1 46 1 0.560746973011643
"647" 4 1 47 1 1.79070187170012
"648" 4 1 48 1 1.02318882597424
"649" 4 1 49 1 0.409996253607329
"650" 4 1 50 1 1.35832272212999
"651" 4 1 51 0 0.470333168074954
"652" 4 1 52 1 0.367689126102719
"653" 4 1 53 1 0.764397087976337
"654" 4 1 54 1 0.868079321116675
"655" 4 1 55 1 1.65005299233133
"656" 4 1 56 1 0.477271475860849
"657" 4 1 57 0 4.25863734008838
"658" 4 1 58 0 0.570111524634995
"659" 4 1 59 1 1.16308612138266
"660" 4 1 60 1 0.675863864028361
"661" 4 1 61 1 3.66023380566156
"662" 4 1 62 1 0.95324201462185
"663" 4 1 63 1 0.792997815790121
"664" 4 1 64 0 0.75546208058577
"665" 4 1 65 1 0.603703036026563
"666" 4 1 66 1 0.600374156672973
"667" 4 1 67 1 0.761754425814375
"668" 4 1 68 0 0.685053722843993
"669" 4 1 69 1 1.10346609512484
"670" 4 1 70 1 0.359773359768558
"671" 4 1 71 1 1.10595187607594
"672" 4 1 72 1 1.64014131104434
"673" 4 1 73 1 0.493384330177214
"674" 4 1 74 1 0.724306110199075
"675" 4 1 75 1 1.75632407525228
"676" 4 1 76 1 1.28162514455803
"677" 4 1 77 1 1.73778177444963
"678" 4 1 78 1 1.15825012640702
"679" 4 1 79 1 0.701250068604946
"680" 4 1 80 1 0.420933812591713
"681" 4 1 81 1 0.460411694502924
"682" 4 1 82 0 0.59070161570888
"683" 4 1 83 1 0.412737547244411
"684" 4 1 84 0 0.7976543045789
"685" 4 1 85 0 0.598678000788204
"686" 4 1 86 0 0.63637013967149
"687" 4 1 87 1 0.727490385640413
"688" 4 1 88 1 0.542119253664278
"689" 4 1 89 1 0.477053442446515
"690" 4 1 90 1 1.08173841610784
"691" 4 1 91 1 1.20713351138588
"692" 4 1 92 1 0.722689209003001
"693" 4 1 93 0 0.554765647798311
"694" 4 1 94 1 2.50948970194999
"695" 4 1 95 1 0.731406053987797
"696" 4 1 96 0 0.733519865497015
"697" 4 1 97 1 0.338741301108617
"698" 4 1 98 1 0.465172322936356
"699" 4 1 99 1 0.77763416707376
"700" 4 1 100 1 0.394603847522289
"701" 4 1 101 0 0.594745575203095
"702" 4 1 102 1 0.55343919590814
"703" 4 1 103 1 0.458394389369059
"704" 4 1 104 1 0.476326574298553
"705" 4 1 105 1 0.666585642260034
"706" 4 1 106 0 0.550893161512911
"707" 4 1 107 1 0.674450201197993
"708" 4 1 108 1 0.368856669388246
"709" 4 1 109 1 0.644845795913134
"710" 4 1 110 1 0.457994000528939
"711" 4 1 111 0 0.78880956229521
"712" 4 1 112 0 0.542220299963839
"713" 4 1 113 0 0.658616153777577
"714" 4 1 114 0 0.806446490232367
"715" 4 1 115 1 0.409266619698144
"716" 4 1 116 1 0.866635749778245
"717" 4 1 117 1 0.855755471749231
"718" 4 1 118 0 0.500139988702722
"719" 4 1 119 1 3.17395692144055
"720" 4 1 120 0 1.66252499850653
"721" 4 1 121 0 1.13875473318994
"722" 4 1 122 1 0.772830137052108
"723" 4 1 123 0 0.711643788019195
"724" 4 1 124 1 1.19802537502628
"725" 4 1 125 1 0.552425771122798
"726" 4 1 126 1 0.837824023853987
"727" 4 1 127 1 0.483648581540212
"728" 4 1 128 1 0.442988697456662
"729" 4 1 129 1 1.2252453890834
"730" 4 1 130 1 0.671000332694035
"731" 4 1 131 1 3.92749961932423
"732" 4 1 132 1 0.405278925761581
"733" 4 1 133 1 0.511793875446077
"734" 4 1 134 0 0.453926687547471
"735" 4 1 135 1 0.460413946240675
"736" 4 1 136 1 0.741153407723177
"737" 4 1 137 0 3.64496177449683
"738" 4 1 138 1 0.478657262205612
"739" 4 1 139 0 0.994286584613845
"740" 4 1 140 1 0.590246676214971
"741" 4 1 141 1 1.79161353135109
"742" 4 1 142 1 0.568836731110234
"743" 4 1 143 1 0.579583346295636
"744" 4 1 144 1 0.522509098388255
"745" 4 1 145 1 1.50774229867011
"746" 4 1 146 0 1.46857663707575
"747" 4 1 147 1 0.346963475025259
"748" 4 1 148 1 1.12479599591857
"749" 4 1 149 1 0.783549757935107
"750" 4 1 150 1 0.604661139773671
"751" 4 1 151 1 0.671030615491327
"752" 4 1 152 1 1.26708477392979
"753" 4 1 153 1 0.740759862962179
"754" 4 1 154 1 0.667690550387837
"755" 4 1 155 1 0.632093302589376
"756" 4 1 156 0 0.658804402626585
"757" 4 1 157 1 0.618551779868547
"758" 4 1 158 1 0.28554708525259
"759" 4 1 159 1 0.385424552279059
"760" 4 1 160 1 1.4615343032903
"761" 4 1 161 1 0.308139915748499
"762" 4 1 162 0 0.682316449335776
"763" 4 1 163 1 0.425339446933009
"764" 4 1 164 0 0.714596734380815
"765" 4 1 165 0 0.591138694099151
"766" 4 1 166 1 1.09053206343669
"767" 4 1 167 1 0.341431014903355
"768" 4 1 168 0 0.638923906646203
"769" 4 1 169 1 0.509757558725309
"770" 4 1 170 1 1.02554095077934
"771" 4 1 171 1 0.445460809051525
"772" 4 1 172 0 0.435965656248853
"773" 4 1 173 1 0.439067745453678
"774" 4 1 174 1 0.348860435811803
"775" 4 1 175 0 0.938448481435422
"776" 4 1 176 1 0.934647299044766
"777" 4 1 177 1 0.492081145819742
"778" 4 1 178 1 0.28024140625773
"779" 4 1 179 1 0.621473696949426
"780" 4 1 180 1 0.402743136819918
"781" 4 1 181 1 0.573286764894612
"782" 4 1 182 1 1.34633885916695
"783" 4 1 183 1 0.379775160490535
"784" 4 1 184 1 0.370506387676112
"785" 4 1 185 1 0.486934474832378
"786" 4 1 186 1 0.294225558118429
"787" 4 1 187 1 0.43223421528982
"788" 4 1 188 0 0.773099814820569
"789" 4 1 189 1 0.426207975226454
"790" 4 1 190 0 0.882704509722535
"791" 4 1 191 1 0.461527081987355
"792" 4 1 192 1 0.434706789843738
"793" 4 1 193 1 0.347031185450964
"794" 4 1 194 1 1.51099060553219
"795" 4 1 195 1 0.563908725115936
"796" 4 1 196 0 1.5013064922574
"797" 4 1 197 1 0.694463218729477
"798" 4 1 198 0 0.692474752188195
"799" 4 1 199 1 0.531721671886742
"800" 4 1 200 1 0.415883904217742
"801" 5 1 1 1 1.70710643595504
"802" 5 1 2 1 0.980543052113149
"803" 5 1 3 1 0.313629911868367
"804" 5 1 4 1 0.72311796884099
"805" 5 1 5 0 0.691136263028719
"806" 5 1 6 1 0.594423984829802
"807" 5 1 7 0 1.8221780205695
"808" 5 1 8 1 0.712817623763811
"809" 5 1 9 1 1.42544878893392
"810" 5 1 10 1 0.503959165682551
"811" 5 1 11 1 0.737728546183556
"812" 5 1 12 1 0.39072928917082
"813" 5 1 13 1 0.3348904191982
"814" 5 1 14 1 1.54168496690085
"815" 5 1 15 1 0.423763903214596
"816" 5 1 16 1 0.544625046800822
"817" 5 1 17 1 0.711276375918183
"818" 5 1 18 1 1.66424161848845
"819" 5 1 19 1 0.508285020287614
"820" 5 1 20 1 0.561916649573483
"821" 5 1 21 1 0.689640753434971
"822" 5 1 22 1 0.441234508967027
"823" 5 1 23 1 1.00254193053907
"824" 5 1 24 1 0.682743374643847
"825" 5 1 25 0 0.742464278720785
"826" 5 1 26 0 1.29119107436668
"827" 5 1 27 1 0.350088871448766
"828" 5 1 28 0 0.895541987127625
"829" 5 1 29 1 1.7533940305342
"830" 5 1 30 0 0.546233687904663
"831" 5 1 31 1 0.675532990730368
"832" 5 1 32 0 0.623465114696883
"833" 5 1 33 1 0.290184110559057
"834" 5 1 34 1 0.396651396011934
"835" 5 1 35 1 0.429717725270893
"836" 5 1 36 1 1.4491140127941
"837" 5 1 37 1 0.521078460524324
"838" 5 1 38 1 0.410671308222692
"839" 5 1 39 1 1.73908647983707
"840" 5 1 40 1 0.653327822202817
"841" 5 1 41 1 0.454573919943068
"842" 5 1 42 1 0.804188468413893
"843" 5 1 43 1 0.6496781920949
"844" 5 1 44 1 1.12713339237403
"845" 5 1 45 1 0.586074401661754
"846" 5 1 46 1 0.445174634342082
"847" 5 1 47 1 0.587063610272016
"848" 5 1 48 1 1.16869383016974
"849" 5 1 49 1 0.425470249518286
"850" 5 1 50 1 0.594425998174585
"851" 5 1 51 1 1.05122752705263
"852" 5 1 52 1 0.458894607635681
"853" 5 1 53 1 0.336510634619743
"854" 5 1 54 1 0.594601288408972
"855" 5 1 55 0 1.10944764861045
"856" 5 1 56 1 2.50217829434387
"857" 5 1 57 0 0.738856107328087
"858" 5 1 58 0 1.41526093435846
"859" 5 1 59 1 0.379144701826852
"860" 5 1 60 1 0.280043320866302
"861" 5 1 61 1 0.843725621886551
"862" 5 1 62 1 0.830231438541319
"863" 5 1 63 0 0.635672830741387
"864" 5 1 64 1 3.58750431514997
"865" 5 1 65 1 0.646913468896877
"866" 5 1 66 1 0.465010412290692
"867" 5 1 67 0 1.23357896614214
"868" 5 1 68 0 0.75889126531221
"869" 5 1 69 0 0.968080291051418
"870" 5 1 70 0 1.63722046178067
"871" 5 1 71 1 0.493682241731789
"872" 5 1 72 1 0.822414658327587
"873" 5 1 73 1 1.01407587968186
"874" 5 1 74 1 2.85530035472894
"875" 5 1 75 1 0.267067837498616
"876" 5 1 76 1 0.65294205022091
"877" 5 1 77 1 0.613051407094114
"878" 5 1 78 1 0.858290066066198
"879" 5 1 79 1 0.810382847714238
"880" 5 1 80 0 0.459009153513238
"881" 5 1 81 1 0.936402463013306
"882" 5 1 82 1 0.618522183921654
"883" 5 1 83 1 0.621302600691561
"884" 5 1 84 0 0.741750209370628
"885" 5 1 85 0 0.426341849638615
"886" 5 1 86 0 1.08463861633977
"887" 5 1 87 0 0.888898382688873
"888" 5 1 88 1 0.368214356519282
"889" 5 1 89 1 1.57233606038196
"890" 5 1 90 0 0.406002627843991
"891" 5 1 91 1 0.403703550125938
"892" 5 1 92 0 1.11407298553968
"893" 5 1 93 0 0.447888460088056
"894" 5 1 94 0 0.357370965753216
"895" 5 1 95 1 1.34536278602807
"896" 5 1 96 1 0.408822297130711
"897" 5 1 97 1 1.23202118835086
"898" 5 1 98 1 1.5199706071727
"899" 5 1 99 0 0.984801762746181
"900" 5 1 100 0 0.873622766731307
"901" 5 1 101 1 0.569978326974437
"902" 5 1 102 0 0.589812601755373
"903" 5 1 103 1 0.612479283380322
"904" 5 1 104 1 0.656981290990021
"905" 5 1 105 1 0.856266289616469
"906" 5 1 106 1 0.411308561043348
"907" 5 1 107 1 0.696634264135733
"908" 5 1 108 1 0.676705122595653
"909" 5 1 109 1 0.481697675915435
"910" 5 1 110 1 0.640297705484088
"911" 5 1 111 1 0.797518146186136
"912" 5 1 112 0 0.487563761027996
"913" 5 1 113 1 0.351512620097958
"914" 5 1 114 1 0.6660301834126
"915" 5 1 115 1 0.558642433681991
"916" 5 1 116 1 3.90071774111642
"917" 5 1 117 1 0.366853073549457
"918" 5 1 118 1 0.887042643102817
"919" 5 1 119 1 0.541559392985888
"920" 5 1 120 1 0.356657187037636
"921" 5 1 121 0 1.14103509201668
"922" 5 1 122 1 0.427739433997311
"923" 5 1 123 1 0.76033627701411
"924" 5 1 124 0 1.55111671350431
"925" 5 1 125 1 0.387140178021975
"926" 5 1 126 1 0.90778639083961
"927" 5 1 127 0 0.763813325814437
"928" 5 1 128 1 0.395223389186896
"929" 5 1 129 1 0.618106487717014
"930" 5 1 130 0 1.02971371832863
"931" 5 1 131 1 0.418202528436668
"932" 5 1 132 1 0.494816068414133
"933" 5 1 133 1 0.345889270448126
"934" 5 1 134 0 0.612225146047305
"935" 5 1 135 1 0.332080616594292
"936" 5 1 136 0 2.42526121672522
"937" 5 1 137 1 0.489919640905689
"938" 5 1 138 1 0.505334484966472
"939" 5 1 139 0 0.343763063446619
"940" 5 1 140 1 0.743374757684302
"941" 5 1 141 1 0.56872131478088
"942" 5 1 142 0 0.506132252992131
"943" 5 1 143 1 0.505726202868857
"944" 5 1 144 0 0.695798459316604
"945" 5 1 145 1 0.730125847642776
"946" 5 1 146 1 1.26554622976435
"947" 5 1 147 1 0.466455970540177
"948" 5 1 148 0 0.968953704445623
"949" 5 1 149 1 0.652133315946441
"950" 5 1 150 1 0.800528087708168
"951" 5 1 151 1 0.839275431538466
"952" 5 1 152 1 0.520092530100141
"953" 5 1 153 1 0.42428005771013
"954" 5 1 154 1 0.725170164252631
"955" 5 1 155 1 0.819711089905351
"956" 5 1 156 1 0.59330920624407
"957" 5 1 157 1 0.654886969913263
"958" 5 1 158 0 1.01668302459177
"959" 5 1 159 1 0.711711357583292
"960" 5 1 160 1 0.704642755239736
"961" 5 1 161 1 0.926606282083783
"962" 5 1 162 0 0.51956868602708
"963" 5 1 163 1 0.545786804831587
"964" 5 1 164 1 0.345735582032241
"965" 5 1 165 1 0.625488733997103
"966" 5 1 166 1 1.8036468680203
"967" 5 1 167 0 1.54847523564659
"968" 5 1 168 0 0.299586082129274
"969" 5 1 169 1 0.428189661909826
"970" 5 1 170 1 0.618509621303063
"971" 5 1 171 1 0.415196942890529
"972" 5 1 172 1 0.642494871369563
"973" 5 1 173 0 0.824327675664332
"974" 5 1 174 1 0.411655748559628
"975" 5 1 175 1 0.400863285776693
"976" 5 1 176 1 0.584597481139936
"977" 5 1 177 1 0.44417927019624
"978" 5 1 178 1 0.339560018418822
"979" 5 1 179 1 0.570361618176568
"980" 5 1 180 1 0.635313696647529
"981" 5 1 181 0 1.96550625334913
"982" 5 1 182 0 1.06830178146251
"983" 5 1 183 1 1.05162297486607
"984" 5 1 184 0 0.334341506828088
"985" 5 1 185 1 0.354650248710532
"986" 5 1 186 1 0.630556015997659
"987" 5 1 187 1 0.625255347174592
"988" 5 1 188 1 0.672357451390941
"989" 5 1 189 1 0.707565395704005
"990" 5 1 190 1 1.39165013056435
"991" 5 1 191 1 0.327778452674858
"992" 5 1 192 0 2.3857100438294
"993" 5 1 193 1 0.840596828305628
"994" 5 1 194 1 0.746124786668923
"995" 5 1 195 1 0.604195246241521
"996" 5 1 196 0 0.339428952305112
"997" 5 1 197 1 1.24202959841024
"998" 5 1 198 0 0.66292472954141
"999" 5 1 199 1 0.434289719902445
"1000" 5 1 200 1 0.515497498980258
"1001" 6 1 1 1 1.68750113164773
"1002" 6 1 2 1 1.2099779277849
"1003" 6 1 3 1 0.54149558827281
"1004" 6 1 4 1 0.684911246267613
"1005" 6 1 5 1 0.343293162505608
"1006" 6 1 6 1 1.61855066682724
"1007" 6 1 7 0 0.494134163457435
"1008" 6 1 8 1 0.42355373232346
"1009" 6 1 9 1 0.474259417349938
"1010" 6 1 10 1 0.787567509156186
"1011" 6 1 11 1 0.370889816247392
"1012" 6 1 12 1 0.339209380489308
"1013" 6 1 13 0 0.4951847543451
"1014" 6 1 14 1 0.430398938529659
"1015" 6 1 15 1 6.47269041979918
"1016" 6 1 16 1 0.721917139129248
"1017" 6 1 17 1 0.566724861777853
"1018" 6 1 18 1 0.381160780958366
"1019" 6 1 19 1 1.96582622812968
"1020" 6 1 20 0 0.388680602312554
"1021" 6 1 21 1 2.18850457033515
"1022" 6 1 22 1 1.84488903219765
"1023" 6 1 23 1 0.622677810254041
"1024" 6 1 24 1 0.576174752404913
"1025" 6 1 25 1 0.731286542019341
"1026" 6 1 26 0 2.06000450667506
"1027" 6 1 27 1 0.601015916516539
"1028" 6 1 28 1 0.295292454428505
"1029" 6 1 29 1 0.776472697017714
"1030" 6 1 30 1 0.451840903302189
"1031" 6 1 31 1 0.684782068216708
"1032" 6 1 32 1 0.455394279984757
"1033" 6 1 33 1 0.510117599838879
"1034" 6 1 34 1 1.0185443306719
"1035" 6 1 35 1 1.7364801308834
"1036" 6 1 36 1 0.524891326680314
"1037" 6 1 37 0 3.04570398712391
"1038" 6 1 38 1 1.50529917323589
"1039" 6 1 39 1 0.345655681177974
"1040" 6 1 40 1 0.356254539551679
"1041" 6 1 41 1 0.359205091790296
"1042" 6 1 42 1 0.720465595718939
"1043" 6 1 43 1 0.550007980950642
"1044" 6 1 44 1 0.950948478300124
"1045" 6 1 45 1 1.0836433400251
"1046" 6 1 46 1 0.547834157186095
"1047" 6 1 47 1 0.555473391622305
"1048" 6 1 48 0 1.4061975952005
"1049" 6 1 49 1 0.692719485054258
"1050" 6 1 50 0 0.534527330941986
"1051" 6 1 51 0 1.42309739419026
"1052" 6 1 52 0 1.13383604952879
"1053" 6 1 53 0 1.45188072409946
"1054" 6 1 54 0 1.22547331054276
"1055" 6 1 55 0 0.432213607641403
"1056" 6 1 56 1 0.694986428520177
"1057" 6 1 57 1 0.401960265229456
"1058" 6 1 58 1 0.632981765409466
"1059" 6 1 59 1 0.369833303197287
"1060" 6 1 60 1 2.75457280340604
"1061" 6 1 61 1 0.364067475488875
"1062" 6 1 62 1 0.395299110246357
"1063" 6 1 63 1 0.347632113416214
"1064" 6 1 64 1 0.80007766393479
"1065" 6 1 65 1 0.541656415515579
"1066" 6 1 66 1 0.693393811205402
"1067" 6 1 67 1 0.566559595987666
"1068" 6 1 68 1 0.458015653405804
"1069" 6 1 69 1 0.373116534163244
"1070" 6 1 70 1 0.42733503987547
"1071" 6 1 71 1 0.248580118936487
"1072" 6 1 72 0 1.54943449587887
"1073" 6 1 73 0 0.731554273502901
"1074" 6 1 74 1 1.55746419288591
"1075" 6 1 75 1 0.363184500927571
"1076" 6 1 76 1 0.718921143362764
"1077" 6 1 77 1 1.22213482222008
"1078" 6 1 78 1 0.419473054128233
"1079" 6 1 79 1 1.38446822345164
"1080" 6 1 80 1 1.10812826787448
"1081" 6 1 81 1 0.431527661675587
"1082" 6 1 82 1 0.692070762027986
"1083" 6 1 83 1 0.643533238389529
"1084" 6 1 84 1 0.638189059213735
"1085" 6 1 85 1 0.381201059542131
"1086" 6 1 86 1 0.722136123368517
"1087" 6 1 87 1 1.92424658036372
"1088" 6 1 88 1 1.8585665109572
"1089" 6 1 89 1 0.826438641333487
"1090" 6 1 90 0 0.88570345634874
"1091" 6 1 91 1 1.26635519677587
"1092" 6 1 92 0 0.777933762252796
"1093" 6 1 93 1 0.484513969747815
"1094" 6 1 94 0 0.526804030610714
"1095" 6 1 95 1 0.834901744103991
"1096" 6 1 96 0 0.552619026470929
"1097" 6 1 97 1 0.387844633103814
"1098" 6 1 98 0 1.98801989382785
"1099" 6 1 99 0 0.734368177589029
"1100" 6 1 100 1 0.499300154415425
"1101" 6 1 101 1 0.601559961958788
"1102" 6 1 102 1 0.527364784007892
"1103" 6 1 103 1 0.787598684882745
"1104" 6 1 104 0 0.58458282043878
"1105" 6 1 105 1 0.50334184346674
"1106" 6 1 106 1 3.71568947671307
"1107" 6 1 107 1 1.63327920639468
"1108" 6 1 108 0 0.522905584855471
"1109" 6 1 109 1 0.467862966449466
"1110" 6 1 110 1 0.721635652723722
"1111" 6 1 111 1 1.1704387610862
"1112" 6 1 112 0 0.802561751101632
"1113" 6 1 113 1 0.43516840740433
"1114" 6 1 114 1 0.744153868893161
"1115" 6 1 115 1 0.812574977056589
"1116" 6 1 116 1 0.440317083822098
"1117" 6 1 117 0 2.46497562963143
"1118" 6 1 118 1 0.890713758333121
"1119" 6 1 119 1 0.410491947225761
"1120" 6 1 120 0 1.11839857769758
"1121" 6 1 121 0 2.44594112662552
"1122" 6 1 122 1 0.516565582557581
"1123" 6 1 123 1 0.417411091177724
"1124" 6 1 124 1 0.532008512969129
"1125" 6 1 125 1 0.661476481490303
"1126" 6 1 126 0 0.632886423596647
"1127" 6 1 127 1 0.488176785700023
"1128" 6 1 128 1 0.623463620459661
"1129" 6 1 129 1 0.54546300656395
"1130" 6 1 130 1 1.03313258286938
"1131" 6 1 131 1 0.81955238607293
"1132" 6 1 132 1 0.44840726462286
"1133" 6 1 133 1 0.449405073968694
"1134" 6 1 134 1 0.675288401514757
"1135" 6 1 135 1 0.932323400990106
"1136" 6 1 136 1 0.647215343044605
"1137" 6 1 137 1 0.849701128905639
"1138" 6 1 138 0 1.22381180780334
"1139" 6 1 139 1 1.11383297400503
"1140" 6 1 140 0 1.15456328466535
"1141" 6 1 141 0 1.48552704607509
"1142" 6 1 142 1 0.376471493164077
"1143" 6 1 143 1 0.353246177327819
"1144" 6 1 144 1 0.54015566995414
"1145" 6 1 145 1 1.27316232721275
"1146" 6 1 146 1 0.392580789701548
"1147" 6 1 147 1 0.827244437171146
"1148" 6 1 148 1 0.729396431663074
"1149" 6 1 149 1 0.44547738430649
"1150" 6 1 150 1 0.56125369219901
"1151" 6 1 151 1 0.496115285378415
"1152" 6 1 152 1 0.419064660720527
"1153" 6 1 153 0 1.61335232347809
"1154" 6 1 154 1 0.497435400476214
"1155" 6 1 155 1 0.344166859639343
"1156" 6 1 156 1 1.04106841785135
"1157" 6 1 157 0 0.561797732789535
"1158" 6 1 158 1 0.605117771620862
"1159" 6 1 159 1 0.352388494427316
"1160" 6 1 160 1 0.400635039717425
"1161" 6 1 161 1 0.772526059792843
"1162" 6 1 162 1 0.602116684549022
"1163" 6 1 163 1 1.10301774563733
"1164" 6 1 164 1 0.301076090325136
"1165" 6 1 165 1 0.592974519582931
"1166" 6 1 166 1 1.32180881332094
"1167" 6 1 167 1 0.869200790414587
"1168" 6 1 168 1 0.350823713877238
"1169" 6 1 169 1 1.31292561101122
"1170" 6 1 170 0 0.636569417326711
"1171" 6 1 171 1 1.39952006303705
"1172" 6 1 172 1 1.26539090547664
"1173" 6 1 173 1 0.373485965061002
"1174" 6 1 174 0 1.10447360304696
"1175" 6 1 175 0 2.36730402682954
"1176" 6 1 176 1 0.370152701436542
"1177" 6 1 177 0 0.833979112809058
"1178" 6 1 178 1 0.676240748746321
"1179" 6 1 179 0 1.25523167741485
"1180" 6 1 180 1 0.517619862120133
"1181" 6 1 181 1 0.408376382152084
"1182" 6 1 182 0 1.0502489870009
"1183" 6 1 183 0 0.609149071540684
"1184" 6 1 184 1 0.890379562563729
"1185" 6 1 185 1 0.38544591425173
"1186" 6 1 186 0 0.901896861134563
"1187" 6 1 187 1 0.641003017366864
"1188" 6 1 188 1 0.614862060741987
"1189" 6 1 189 0 3.25231242986908
"1190" 6 1 190 0 0.611087507656775
"1191" 6 1 191 1 1.35849968853826
"1192" 6 1 192 1 1.26493771769851
"1193" 6 1 193 0 0.402581638744101
"1194" 6 1 194 1 0.751550851602573
"1195" 6 1 195 1 1.1196952962759
"1196" 6 1 196 1 1.09293032906484
"1197" 6 1 197 0 0.514823889472522
"1198" 6 1 198 1 1.52510793896858
"1199" 6 1 199 1 1.43562638178421
"1200" 6 1 200 1 0.406205599099398
"1201" 7 1 1 1 0.37556437965529
"1202" 7 1 2 1 0.642057115645148
"1203" 7 1 3 0 0.68102928990731
"1204" 7 1 4 1 2.60546480651852
"1205" 7 1 5 1 0.499297358784359
"1206" 7 1 6 0 0.648322828017641
"1207" 7 1 7 1 1.16595107597532
"1208" 7 1 8 1 0.648718043422327
"1209" 7 1 9 0 0.591404033778235
"1210" 7 1 10 1 0.327354292345699
"1211" 7 1 11 1 0.370284237248357
"1212" 7 1 12 1 1.03706884935265
"1213" 7 1 13 0 2.39029918348603
"1214" 7 1 14 1 0.718591685832944
"1215" 7 1 15 1 0.472394013806246
"1216" 7 1 16 1 0.401325389874168
"1217" 7 1 17 1 0.388737290466204
"1218" 7 1 18 1 0.381221814550459
"1219" 7 1 19 1 0.49983091343008
"1220" 7 1 20 1 1.24281628015684
"1221" 7 1 21 1 0.898239006342366
"1222" 7 1 22 0 0.916363809741102
"1223" 7 1 23 0 1.40618570859032
"1224" 7 1 24 1 1.73283153729886
"1225" 7 1 25 1 0.465210448130965
"1226" 7 1 26 1 0.339783566958271
"1227" 7 1 27 1 0.620766126675066
"1228" 7 1 28 0 0.504983228002209
"1229" 7 1 29 1 0.499267128549516
"1230" 7 1 30 0 3.49909020559769
"1231" 7 1 31 1 0.290813602140173
"1232" 7 1 32 1 0.732782744659111
"1233" 7 1 33 1 0.439943241871428
"1234" 7 1 34 1 0.543960248427
"1235" 7 1 35 1 0.384431438857689
"1236" 7 1 36 0 0.436777775823139
"1237" 7 1 37 1 0.558444486112334
"1238" 7 1 38 1 0.518554917824455
"1239" 7 1 39 1 0.782918882021215
"1240" 7 1 40 1 0.364508221384604
"1241" 7 1 41 0 0.408005820908584
"1242" 7 1 42 1 0.829695190395694
"1243" 7 1 43 1 0.502974161153659
"1244" 7 1 44 1 0.497658260152675
"1245" 7 1 45 1 0.807027229872067
"1246" 7 1 46 1 0.459869690839667
"1247" 7 1 47 1 0.369599021559581
"1248" 7 1 48 1 0.351206144260243
"1249" 7 1 49 1 0.777510437511373
"1250" 7 1 50 0 0.658074723789468
"1251" 7 1 51 1 0.718946448444854
"1252" 7 1 52 1 0.362022704059258
"1253" 7 1 53 1 0.34995420557959
"1254" 7 1 54 1 0.317339843664318
"1255" 7 1 55 1 0.40594472367689
"1256" 7 1 56 1 0.400396111175418
"1257" 7 1 57 1 0.310293531718198
"1258" 7 1 58 1 1.58806611639354
"1259" 7 1 59 1 0.703420531906653
"1260" 7 1 60 0 1.13636482335161
"1261" 7 1 61 1 0.726350729390979
"1262" 7 1 62 1 1.84201375797903
"1263" 7 1 63 1 0.388511534297373
"1264" 7 1 64 0 0.506042684544344
"1265" 7 1 65 1 0.855602493172977
"1266" 7 1 66 1 0.640892214537133
"1267" 7 1 67 1 0.673861936553381
"1268" 7 1 68 0 0.439541033393238
"1269" 7 1 69 1 0.450825243723113
"1270" 7 1 70 1 0.356651928052772
"1271" 7 1 71 1 0.411918962341268
"1272" 7 1 72 1 0.340313906216994
"1273" 7 1 73 1 0.519236139145214
"1274" 7 1 74 1 0.45775546033727
"1275" 7 1 75 0 0.967825947401114
"1276" 7 1 76 1 0.457598556759767
"1277" 7 1 77 0 0.300728835331276
"1278" 7 1 78 1 0.271174446107354
"1279" 7 1 79 0 0.482591327757109
"1280" 7 1 80 0 0.661965306002647
"1281" 7 1 81 1 0.629307281669229
"1282" 7 1 82 1 0.419262787294108
"1283" 7 1 83 0 0.898363033696543
"1284" 7 1 84 1 0.358299738808069
"1285" 7 1 85 0 0.51119185656542
"1286" 7 1 86 1 0.53815847038012
"1287" 7 1 87 1 0.356622102517635
"1288" 7 1 88 1 0.402631687765941
"1289" 7 1 89 0 0.903572550041601
"1290" 7 1 90 0 3.30119805971906
"1291" 7 1 91 0 0.604297791905701
"1292" 7 1 92 1 0.349727400236297
"1293" 7 1 93 1 2.17667553126486
"1294" 7 1 94 0 0.469582192754839
"1295" 7 1 95 1 0.549564054807648
"1296" 7 1 96 0 1.22324329888402
"1297" 7 1 97 1 0.30107116214931
"1298" 7 1 98 1 0.880927636533976
"1299" 7 1 99 0 0.791080988495611
"1300" 7 1 100 1 1.11537453863909
"1301" 7 1 101 1 0.474083306910936
"1302" 7 1 102 1 0.671770550319925
"1303" 7 1 103 1 0.638477251125034
"1304" 7 1 104 1 0.691084114509169
"1305" 7 1 105 1 0.533691880769562
"1306" 7 1 106 1 0.524807393225376
"1307" 7 1 107 1 0.535515105384402
"1308" 7 1 108 1 0.603064299313351
"1309" 7 1 109 1 1.13323651278485
"1310" 7 1 110 0 1.64434707701951
"1311" 7 1 111 1 0.414656719502527
"1312" 7 1 112 1 0.460857629118953
"1313" 7 1 113 1 0.718823568411171
"1314" 7 1 114 1 0.514010544337798
"1315" 7 1 115 1 1.01618517467426
"1316" 7 1 116 0 0.924645375179592
"1317" 7 1 117 1 0.528994988705032
"1318" 7 1 118 1 0.425817326585762
"1319" 7 1 119 1 0.375376182792708
"1320" 7 1 120 1 0.49103881777497
"1321" 7 1 121 1 0.597532029683236
"1322" 7 1 122 0 0.746800017763861
"1323" 7 1 123 0 0.774961404462345
"1324" 7 1 124 1 0.299343892270699
"1325" 7 1 125 1 0.833802326931153
"1326" 7 1 126 1 0.824327675225213
"1327" 7 1 127 1 1.01061273575854
"1328" 7 1 128 0 1.70515138464374
"1329" 7 1 129 1 0.587196980664041
"1330" 7 1 130 0 0.767380604609847
"1331" 7 1 131 1 0.486353981140535
"1332" 7 1 132 0 2.36200068368483
"1333" 7 1 133 1 0.464384862023871
"1334" 7 1 134 1 1.51983458894538
"1335" 7 1 135 1 0.64223944174964
"1336" 7 1 136 1 1.40747785377316
"1337" 7 1 137 0 0.612434998460114
"1338" 7 1 138 1 1.5058444342711
"1339" 7 1 139 1 1.47649223123398
"1340" 7 1 140 1 0.479383015698288
"1341" 7 1 141 1 0.506269882186316
"1342" 7 1 142 1 0.393590926589444
"1343" 7 1 143 1 1.01865527365636
"1344" 7 1 144 1 1.01724219469819
"1345" 7 1 145 0 0.817813323267736
"1346" 7 1 146 1 1.39604704571608
"1347" 7 1 147 1 0.403995627858676
"1348" 7 1 148 1 0.491679196537472
"1349" 7 1 149 0 1.29620140789961
"1350" 7 1 150 0 0.635563701442443
"1351" 7 1 151 1 0.638126932349056
"1352" 7 1 152 1 0.35686699515814
"1353" 7 1 153 1 0.733203403566964
"1354" 7 1 154 1 0.421574828419369
"1355" 7 1 155 1 0.471962148431689
"1356" 7 1 156 1 0.441721743816044
"1357" 7 1 157 1 0.469459908558521
"1358" 7 1 158 0 0.360191733389627
"1359" 7 1 159 1 0.968897665977944
"1360" 7 1 160 0 3.00310391067062
"1361" 7 1 161 1 0.700020351888146
"1362" 7 1 162 0 1.71763167503057
"1363" 7 1 163 1 0.676414158662315
"1364" 7 1 164 1 1.70857253632043
"1365" 7 1 165 1 0.287756643749308
"1366" 7 1 166 1 0.495934274261352
"1367" 7 1 167 0 2.63011867257766
"1368" 7 1 168 1 1.12009388178028
"1369" 7 1 169 1 0.890065276470967
"1370" 7 1 170 1 0.8070068819304
"1371" 7 1 171 0 2.4300153265479
"1372" 7 1 172 1 0.844414948065765
"1373" 7 1 173 1 0.525232037550304
"1374" 7 1 174 0 0.427726189081557
"1375" 7 1 175 1 0.517493047150783
"1376" 7 1 176 1 1.37857243662979
"1377" 7 1 177 1 0.355682757105213
"1378" 7 1 178 1 2.58091795274755
"1379" 7 1 179 1 0.316861729025841
"1380" 7 1 180 1 0.364379900916945
"1381" 7 1 181 1 2.54496558536636
"1382" 7 1 182 1 0.367917581258342
"1383" 7 1 183 1 0.4487875743513
"1384" 7 1 184 0 0.567564940581564
"1385" 7 1 185 1 0.480345803735312
"1386" 7 1 186 0 0.587655839700717
"1387" 7 1 187 0 0.472812378739938
"1388" 7 1 188 0 0.880488467586227
"1389" 7 1 189 1 0.844947130294051
"1390" 7 1 190 0 0.4871559893745
"1391" 7 1 191 1 0.407278170640115
"1392" 7 1 192 1 1.34143081970606
"1393" 7 1 193 1 0.576093814713415
"1394" 7 1 194 0 0.774700868352782
"1395" 7 1 195 1 0.445810203513596
"1396" 7 1 196 1 1.81550063275686
"1397" 7 1 197 1 1.34882324083988
"1398" 7 1 198 0 0.82654811159661
"1399" 7 1 199 0 0.280852560082451
"1400" 7 1 200 1 0.592979072918184
"1401" 8 1 1 1 0.480994198329281
"1402" 8 1 2 0 0.798659674694296
"1403" 8 1 3 1 0.785017533387523
"1404" 8 1 4 0 0.662698282365222
"1405" 8 1 5 1 0.512449558048975
"1406" 8 1 6 1 0.812736682987306
"1407" 8 1 7 1 0.719851946336683
"1408" 8 1 8 1 0.370712196104228
"1409" 8 1 9 1 0.727373598230071
"1410" 8 1 10 0 0.793977358052041
"1411" 8 1 11 1 1.21783456833102
"1412" 8 1 12 1 0.407065412412863
"1413" 8 1 13 0 0.360474708114751
"1414" 8 1 14 1 1.5715570487841
"1415" 8 1 15 1 0.574367005208507
"1416" 8 1 16 1 1.68817086720048
"1417" 8 1 17 0 0.834177861019038
"1418" 8 1 18 0 0.339763079037424
"1419" 8 1 19 1 0.376695075484924
"1420" 8 1 20 1 0.364994709811639
"1421" 8 1 21 1 0.499126052740961
"1422" 8 1 22 1 0.719108010670636
"1423" 8 1 23 0 1.0148552565123
"1424" 8 1 24 0 0.904034765250515
"1425" 8 1 25 1 0.47803274112381
"1426" 8 1 26 0 1.35521522679692
"1427" 8 1 27 1 0.812879967469256
"1428" 8 1 28 1 1.44264220134215
"1429" 8 1 29 0 1.83706922309054
"1430" 8 1 30 1 0.411741433247458
"1431" 8 1 31 1 1.02202777766809
"1432" 8 1 32 1 0.435899481904693
"1433" 8 1 33 1 1.45605370877264
"1434" 8 1 34 1 0.402375987187494
"1435" 8 1 35 1 1.2550585214654
"1436" 8 1 36 0 0.445055499413982
"1437" 8 1 37 1 0.704757492381614
"1438" 8 1 38 1 2.40738298291573
"1439" 8 1 39 1 0.813166813064832
"1440" 8 1 40 1 1.14796402344108
"1441" 8 1 41 1 0.532667543245014
"1442" 8 1 42 1 0.805963942884933
"1443" 8 1 43 1 5.06151650123624
"1444" 8 1 44 1 0.312580621631816
"1445" 8 1 45 1 0.975044748360757
"1446" 8 1 46 1 1.19690092779929
"1447" 8 1 47 0 1.71348477478419
"1448" 8 1 48 0 0.578600762010552
"1449" 8 1 49 1 0.394226786165033
"1450" 8 1 50 1 0.474640852917451
"1451" 8 1 51 0 1.28132324739546
"1452" 8 1 52 1 0.573148063011002
"1453" 8 1 53 1 0.731053249983583
"1454" 8 1 54 0 0.618318833230995
"1455" 8 1 55 1 0.469247906325851
"1456" 8 1 56 1 0.495896695738658
"1457" 8 1 57 1 0.655166743822861
"1458" 8 1 58 1 0.600172614142764
"1459" 8 1 59 1 0.667241580175702
"1460" 8 1 60 1 0.501488058949355
"1461" 8 1 61 1 0.837842710821889
"1462" 8 1 62 0 0.461085051095113
"1463" 8 1 63 1 0.610389859452844
"1464" 8 1 64 1 0.457267778277863
"1465" 8 1 65 0 0.521793961886317
"1466" 8 1 66 1 1.18479056744697
"1467" 8 1 67 1 2.3111035012668
"1468" 8 1 68 1 0.736791069369763
"1469" 8 1 69 1 0.400242585645057
"1470" 8 1 70 1 0.794845395496581
"1471" 8 1 71 0 1.00209480864881
"1472" 8 1 72 1 0.677233911294024
"1473" 8 1 73 1 0.676545738210436
"1474" 8 1 74 0 1.78133599572117
"1475" 8 1 75 1 0.374585806680378
"1476" 8 1 76 1 0.840036995225586
"1477" 8 1 77 1 0.429339590716641
"1478" 8 1 78 1 0.725120021850802
"1479" 8 1 79 1 0.519743600798305
"1480" 8 1 80 1 0.468644894246012
"1481" 8 1 81 1 0.543279059478547
"1482" 8 1 82 1 0.352633978788741
"1483" 8 1 83 1 0.407981831854675
"1484" 8 1 84 1 0.322256513222586
"1485" 8 1 85 1 0.506922511268873
"1486" 8 1 86 1 0.909154598752037
"1487" 8 1 87 1 1.00935391958384
"1488" 8 1 88 1 0.489523856724612
"1489" 8 1 89 1 0.714690852122847
"1490" 8 1 90 1 0.668481727895793
"1491" 8 1 91 1 1.01710332751274
"1492" 8 1 92 1 0.37336256744992
"1493" 8 1 93 0 0.900816958440002
"1494" 8 1 94 1 0.528029174954165
"1495" 8 1 95 1 1.37900831262767
"1496" 8 1 96 1 1.66527315001329
"1497" 8 1 97 1 0.39465171897877
"1498" 8 1 98 1 0.721848850288894
"1499" 8 1 99 1 0.505402336479165
"1500" 8 1 100 0 1.94898802683968
"1501" 8 1 101 1 0.559277013230603
"1502" 8 1 102 1 0.450294811823405
"1503" 8 1 103 1 0.569003895206843
"1504" 8 1 104 1 0.418292061107233
"1505" 8 1 105 0 0.955715975263622
"1506" 8 1 106 1 0.369361073494889
"1507" 8 1 107 1 0.697922434805427
"1508" 8 1 108 1 0.951254857936874
"1509" 8 1 109 1 0.516050996173173
"1510" 8 1 110 1 0.57480321043916
"1511" 8 1 111 1 0.834936378407292
"1512" 8 1 112 0 0.849093484516721
"1513" 8 1 113 1 0.732215985707473
"1514" 8 1 114 1 0.492342611529864
"1515" 8 1 115 0 0.530844305636361
"1516" 8 1 116 1 0.471715654256288
"1517" 8 1 117 1 1.32680639799591
"1518" 8 1 118 0 2.65663203505939
"1519" 8 1 119 1 0.435940974589437
"1520" 8 1 120 1 1.45579887459939
"1521" 8 1 121 1 0.454476463520434
"1522" 8 1 122 1 0.639707880944945
"1523" 8 1 123 1 0.49383211415261
"1524" 8 1 124 0 1.21844731131289
"1525" 8 1 125 0 3.05485470046522
"1526" 8 1 126 1 0.577382289498113
"1527" 8 1 127 1 0.471694773294963
"1528" 8 1 128 1 1.7420358320619
"1529" 8 1 129 1 1.96232321116561
"1530" 8 1 130 1 0.481293015541974
"1531" 8 1 131 1 0.835089291756507
"1532" 8 1 132 1 0.335644842967391
"1533" 8 1 133 1 1.66018837862369
"1534" 8 1 134 1 2.86839072265662
"1535" 8 1 135 1 0.882408772893716
"1536" 8 1 136 1 0.579229483755771
"1537" 8 1 137 1 0.590827026832383
"1538" 8 1 138 1 0.481031866868958
"1539" 8 1 139 1 0.518360281532165
"1540" 8 1 140 1 1.88615924150962
"1541" 8 1 141 1 0.398858116176445
"1542" 8 1 142 1 0.483201394054107
"1543" 8 1 143 1 0.636327637670562
"1544" 8 1 144 1 0.50378271900909
"1545" 8 1 145 1 0.615665063685272
"1546" 8 1 146 1 0.63227753557777
"1547" 8 1 147 1 0.906624990209937
"1548" 8 1 148 1 0.750789392024744
"1549" 8 1 149 1 0.84783125404967
"1550" 8 1 150 1 0.548652361539658
"1551" 8 1 151 1 0.43266552814655
"1552" 8 1 152 0 1.533858728074
"1553" 8 1 153 1 0.427862171059474
"1554" 8 1 154 1 0.984640056152828
"1555" 8 1 155 1 0.669639275753871
"1556" 8 1 156 1 1.76528607237013
"1557" 8 1 157 1 2.14364028647728
"1558" 8 1 158 1 0.400685407900251
"1559" 8 1 159 1 2.12376442167908
"1560" 8 1 160 0 0.504038745184429
"1561" 8 1 161 1 1.6281041569761
"1562" 8 1 162 1 0.485510624247138
"1563" 8 1 163 1 0.665836182357278
"1564" 8 1 164 1 0.405172132223845
"1565" 8 1 165 1 0.684058454758022
"1566" 8 1 166 1 1.19647401380679
"1567" 8 1 167 1 0.495513033942785
"1568" 8 1 168 0 1.60431851581298
"1569" 8 1 169 1 0.338711020404939
"1570" 8 1 170 1 0.582879056789447
"1571" 8 1 171 1 0.347570948531386
"1572" 8 1 172 0 0.438592979370151
"1573" 8 1 173 1 0.77574777421914
"1574" 8 1 174 1 0.785546415464487
"1575" 8 1 175 1 0.500992624138482
"1576" 8 1 176 1 0.635492948882282
"1577" 8 1 177 1 0.327029329614714
"1578" 8 1 178 1 1.70205711380905
"1579" 8 1 179 1 1.09973957574507
"1580" 8 1 180 0 0.90876149179833
"1581" 8 1 181 1 1.56331424167659
"1582" 8 1 182 0 1.97871507361624
"1583" 8 1 183 0 0.535960618274286
"1584" 8 1 184 0 1.16378103727754
"1585" 8 1 185 0 0.96163165570423
"1586" 8 1 186 1 1.35970296908868
"1587" 8 1 187 1 0.418637555818539
"1588" 8 1 188 1 0.344977268191054
"1589" 8 1 189 1 0.668258328167256
"1590" 8 1 190 1 0.627426188009791
"1591" 8 1 191 1 0.492403767117299
"1592" 8 1 192 0 1.92890490239812
"1593" 8 1 193 1 0.568215497863479
"1594" 8 1 194 0 0.760352444059216
"1595" 8 1 195 1 0.551641455288045
"1596" 8 1 196 0 1.05219103614194
"1597" 8 1 197 1 1.69564863607986
"1598" 8 1 198 1 1.1703801152329
"1599" 8 1 199 1 0.712183268325403
"1600" 8 1 200 0 2.98043209281238
"1601" 9 1 1 0 0.953406521972269
"1602" 9 1 2 1 4.05872621691506
"1603" 9 1 3 1 0.458268963265698
"1604" 9 1 4 1 0.329644063765649
"1605" 9 1 5 1 1.24176298435219
"1606" 9 1 6 1 0.61015267805662
"1607" 9 1 7 1 0.667244879136793
"1608" 9 1 8 1 0.439115042855032
"1609" 9 1 9 1 0.407488038525917
"1610" 9 1 10 0 1.63652318618819
"1611" 9 1 11 0 0.669043886895291
"1612" 9 1 12 1 0.781867829978466
"1613" 9 1 13 1 0.559643202752806
"1614" 9 1 14 0 1.21437762599671
"1615" 9 1 15 1 0.87794848844409
"1616" 9 1 16 0 0.729886131617241
"1617" 9 1 17 1 1.06800877377298
"1618" 9 1 18 1 2.28040255102282
"1619" 9 1 19 1 0.449700411379803
"1620" 9 1 20 1 0.308472734836861
"1621" 9 1 21 0 0.545086893022526
"1622" 9 1 22 1 0.92966318728542
"1623" 9 1 23 1 0.376867134829052
"1624" 9 1 24 1 0.620704205652233
"1625" 9 1 25 1 1.10127522470336
"1626" 9 1 26 1 0.461327690692618
"1627" 9 1 27 1 1.41051685427036
"1628" 9 1 28 1 2.69974526259443
"1629" 9 1 29 1 0.384723026185762
"1630" 9 1 30 1 0.61173092627665
"1631" 9 1 31 1 2.51613586240122
"1632" 9 1 32 1 0.454958670199849
"1633" 9 1 33 1 0.359552551678848
"1634" 9 1 34 1 0.587395260859746
"1635" 9 1 35 1 0.428135745948181
"1636" 9 1 36 1 0.792182891951408
"1637" 9 1 37 0 0.719843918497674
"1638" 9 1 38 1 0.508573317451868
"1639" 9 1 39 1 0.63264570187917
"1640" 9 1 40 1 0.467187016736716
"1641" 9 1 41 1 0.638219631873071
"1642" 9 1 42 0 0.6816629194743
"1643" 9 1 43 1 1.00012406364037
"1644" 9 1 44 1 0.378997587866616
"1645" 9 1 45 1 0.429869963812642
"1646" 9 1 46 1 0.403379680025857
"1647" 9 1 47 1 0.568757596978918
"1648" 9 1 48 1 1.16321202658582
"1649" 9 1 49 1 0.312080804005265
"1650" 9 1 50 1 0.66844711448811
"1651" 9 1 51 1 1.01921334476629
"1652" 9 1 52 0 0.698614213712979
"1653" 9 1 53 0 0.66968361109728
"1654" 9 1 54 1 0.561742249044124
"1655" 9 1 55 1 0.730768420115113
"1656" 9 1 56 1 0.634497606305871
"1657" 9 1 57 1 0.287968776388094
"1658" 9 1 58 1 0.399454262801446
"1659" 9 1 59 0 0.672557911145967
"1660" 9 1 60 1 0.359901016411837
"1661" 9 1 61 1 0.48893455518363
"1662" 9 1 62 1 1.09760379144223
"1663" 9 1 63 0 0.632477805978153
"1664" 9 1 64 1 0.449715879152995
"1665" 9 1 65 1 0.751871684216894
"1666" 9 1 66 1 0.48431179129798
"1667" 9 1 67 1 0.771307809073012
"1668" 9 1 68 1 0.365498519980349
"1669" 9 1 69 1 0.434750975110568
"1670" 9 1 70 0 1.01199657744868
"1671" 9 1 71 1 1.47910591181414
"1672" 9 1 72 1 0.306877763378434
"1673" 9 1 73 1 0.510589099842124
"1674" 9 1 74 0 1.1959600888323
"1675" 9 1 75 0 1.59637202779157
"1676" 9 1 76 1 0.389615485692397
"1677" 9 1 77 1 0.599829501693603
"1678" 9 1 78 1 0.466236452163197
"1679" 9 1 79 0 0.517177118503954
"1680" 9 1 80 1 0.504079121739604
"1681" 9 1 81 1 0.329650705211796
"1682" 9 1 82 0 0.465629811924417
"1683" 9 1 83 1 0.804344832770992
"1684" 9 1 84 1 0.676987599469721
"1685" 9 1 85 1 2.40273017516639
"1686" 9 1 86 1 0.527519459270407
"1687" 9 1 87 0 0.358788039805833
"1688" 9 1 88 1 0.499126585091464
"1689" 9 1 89 1 0.590699564221315
"1690" 9 1 90 1 0.708789384935051
"1691" 9 1 91 1 0.478872392674442
"1692" 9 1 92 0 0.556173626315314
"1693" 9 1 93 1 0.630425574890338
"1694" 9 1 94 1 3.74452616232727
"1695" 9 1 95 1 0.325432553780265
"1696" 9 1 96 1 0.464941580662504
"1697" 9 1 97 1 0.566513053648639
"1698" 9 1 98 0 0.732309539399576
"1699" 9 1 99 1 0.624723692202009
"1700" 9 1 100 1 0.922570827419404
"1701" 9 1 101 0 0.912341811188962
"1702" 9 1 102 1 0.380312748833094
"1703" 9 1 103 1 0.92285972021753
"1704" 9 1 104 1 1.58646745225554
"1705" 9 1 105 1 1.11077230882412
"1706" 9 1 106 1 0.484504111748654
"1707" 9 1 107 0 1.95406103045633
"1708" 9 1 108 0 0.403805684276391
"1709" 9 1 109 1 0.541394003258087
"1710" 9 1 110 1 0.673231953862589
"1711" 9 1 111 1 1.64375477915071
"1712" 9 1 112 1 0.429456553984899
"1713" 9 1 113 1 0.425794552612584
"1714" 9 1 114 1 0.249716111822054
"1715" 9 1 115 1 0.832820060358383
"1716" 9 1 116 1 0.671782213156577
"1717" 9 1 117 1 0.506299490627367
"1718" 9 1 118 1 2.41032293672999
"1719" 9 1 119 1 2.11951100554643
"1720" 9 1 120 1 0.653279387725983
"1721" 9 1 121 0 0.688480383278336
"1722" 9 1 122 1 2.23640962410206
"1723" 9 1 123 0 0.643817646565847
"1724" 9 1 124 1 1.10160780722369
"1725" 9 1 125 1 4.07804055025522
"1726" 9 1 126 1 1.35092078160914
"1727" 9 1 127 1 0.711800794254988
"1728" 9 1 128 0 0.815342820696067
"1729" 9 1 129 1 0.373000346353743
"1730" 9 1 130 1 0.421304802634753
"1731" 9 1 131 1 0.493010950877331
"1732" 9 1 132 1 0.716106891889591
"1733" 9 1 133 1 0.545218359910417
"1734" 9 1 134 1 0.906864568186458
"1735" 9 1 135 1 0.918679581138771
"1736" 9 1 136 0 0.3695140719302
"1737" 9 1 137 1 0.481693404928315
"1738" 9 1 138 1 0.654679200931918
"1739" 9 1 139 1 0.393306137138512
"1740" 9 1 140 1 0.896981145101599
"1741" 9 1 141 1 0.376082192427013
"1742" 9 1 142 1 2.51087978581199
"1743" 9 1 143 1 0.452039703251328
"1744" 9 1 144 1 1.20091935634473
"1745" 9 1 145 1 0.618808841940016
"1746" 9 1 146 1 0.792345046261791
"1747" 9 1 147 1 0.5729687474682
"1748" 9 1 148 0 2.35067809672048
"1749" 9 1 149 1 0.749219417543151
"1750" 9 1 150 0 0.408127533467021
"1751" 9 1 151 1 0.374527125657536
"1752" 9 1 152 1 0.789965188303962
"1753" 9 1 153 1 0.443105555964634
"1754" 9 1 154 1 0.286840945063159
"1755" 9 1 155 1 0.375658432984725
"1756" 9 1 156 0 0.545924765380565
"1757" 9 1 157 0 0.774742711480241
"1758" 9 1 158 0 1.7230408730018
"1759" 9 1 159 1 0.733075891248416
"1760" 9 1 160 1 0.472110877389088
"1761" 9 1 161 1 0.764760870055296
"1762" 9 1 162 1 0.403231409395114
"1763" 9 1 163 1 0.533899715263397
"1764" 9 1 164 1 0.461694017184433
"1765" 9 1 165 1 0.536346910634078
"1766" 9 1 166 1 0.43064697918063
"1767" 9 1 167 1 1.6800748319407
"1768" 9 1 168 0 1.03052596234577
"1769" 9 1 169 1 0.741328305209521
"1770" 9 1 170 1 0.621069302010816
"1771" 9 1 171 1 0.464257513186429
"1772" 9 1 172 1 0.646347807688173
"1773" 9 1 173 0 0.436667542864569
"1774" 9 1 174 0 3.43827627762267
"1775" 9 1 175 1 1.10595085051842
"1776" 9 1 176 1 0.396971069781575
"1777" 9 1 177 0 0.429614792011213
"1778" 9 1 178 1 2.33401181998616
"1779" 9 1 179 1 0.548464030890726
"1780" 9 1 180 1 0.524871023165528
"1781" 9 1 181 1 0.413255482379813
"1782" 9 1 182 0 1.3580016190391
"1783" 9 1 183 0 0.667769857054111
"1784" 9 1 184 1 0.567234970030841
"1785" 9 1 185 1 0.374371689695865
"1786" 9 1 186 1 0.476465794453397
"1787" 9 1 187 0 1.41526651508315
"1788" 9 1 188 1 0.327924865149893
"1789" 9 1 189 1 0.558334493910894
"1790" 9 1 190 0 0.744509354257025
"1791" 9 1 191 1 0.959426308974158
"1792" 9 1 192 1 0.379283141094726
"1793" 9 1 193 1 1.04337896169769
"1794" 9 1 194 1 0.594755983554292
"1795" 9 1 195 1 2.26894015274756
"1796" 9 1 196 1 0.399653250820003
"1797" 9 1 197 0 0.677411307373084
"1798" 9 1 198 1 2.10128161961352
"1799" 9 1 199 1 0.704984017421026
"1800" 9 1 200 1 0.896649788510054
"1801" 10 1 1 1 1.08106074392144
"1802" 10 1 2 1 1.67836519763852
"1803" 10 1 3 1 0.456183981831186
"1804" 10 1 4 1 0.590955373089761
"1805" 10 1 5 0 2.07040258864267
"1806" 10 1 6 1 0.74754540335061
"1807" 10 1 7 1 0.714047381456476
"1808" 10 1 8 1 0.376669763853308
"1809" 10 1 9 1 0.89835433636047
"1810" 10 1 10 0 1.20542550764
"1811" 10 1 11 1 0.659791067763697
"1812" 10 1 12 1 0.716996255790815
"1813" 10 1 13 0 2.03705112915486
"1814" 10 1 14 0 0.67998291655397
"1815" 10 1 15 1 0.658674735387787
"1816" 10 1 16 1 0.597923035524786
"1817" 10 1 17 0 0.587138960544951
"1818" 10 1 18 0 1.13922854651418
"1819" 10 1 19 1 0.757450375734363
"1820" 10 1 20 1 0.57419220274128
"1821" 10 1 21 1 0.514298679982778
"1822" 10 1 22 1 0.935927237062715
"1823" 10 1 23 1 0.278841349467635
"1824" 10 1 24 1 0.35821226291405
"1825" 10 1 25 0 1.29525327153364
"1826" 10 1 26 0 0.387805376845878
"1827" 10 1 27 1 4.21449495017109
"1828" 10 1 28 1 0.577063793009147
"1829" 10 1 29 1 1.51674153579725
"1830" 10 1 30 1 0.393600513936486
"1831" 10 1 31 0 0.503524483292364
"1832" 10 1 32 1 1.15824643668626
"1833" 10 1 33 1 2.36805059476523
"1834" 10 1 34 1 0.689421610775404
"1835" 10 1 35 1 0.410201039091218
"1836" 10 1 36 1 0.413241373120807
"1837" 10 1 37 1 1.84365741615882
"1838" 10 1 38 1 1.50544230055064
"1839" 10 1 39 1 0.468506386921275
"1840" 10 1 40 1 0.444697655971162
"1841" 10 1 41 1 0.603268494006712
"1842" 10 1 42 1 1.64629582573846
"1843" 10 1 43 0 0.396729227747768
"1844" 10 1 44 1 0.695286347080488
"1845" 10 1 45 0 1.72873745071655
"1846" 10 1 46 1 1.00745364597626
"1847" 10 1 47 1 0.758731366750319
"1848" 10 1 48 1 0.890462927059271
"1849" 10 1 49 1 0.413323542727623
"1850" 10 1 50 1 0.343635985164903
"1851" 10 1 51 0 0.891877981794532
"1852" 10 1 52 1 0.814657220776193
"1853" 10 1 53 1 0.398855488340836
"1854" 10 1 54 1 0.569988106220495
"1855" 10 1 55 0 0.717084505846724
"1856" 10 1 56 1 0.407675542200916
"1857" 10 1 57 1 0.593706239794381
"1858" 10 1 58 1 0.364667874744628
"1859" 10 1 59 1 0.426359715478495
"1860" 10 1 60 0 0.451221440872178
"1861" 10 1 61 0 0.435437955677044
"1862" 10 1 62 1 0.43611681697052
"1863" 10 1 63 0 1.04882597781532
"1864" 10 1 64 1 0.459363232170232
"1865" 10 1 65 1 0.590241344720591
"1866" 10 1 66 1 1.15198368813796
"1867" 10 1 67 1 0.661233850372024
"1868" 10 1 68 1 0.857888988605235
"1869" 10 1 69 1 1.25242239502398
"1870" 10 1 70 0 0.553563081916422
"1871" 10 1 71 1 0.479334980876651
"1872" 10 1 72 0 0.383498684558552
"1873" 10 1 73 1 0.617113556426019
"1874" 10 1 74 1 1.23052693565935
"1875" 10 1 75 1 0.365807718023658
"1876" 10 1 76 0 1.09977507658862
"1877" 10 1 77 1 0.55860654149903
"1878" 10 1 78 0 1.96924362406507
"1879" 10 1 79 1 1.49896202064352
"1880" 10 1 80 0 1.83658002282307
"1881" 10 1 81 1 3.44296619281638
"1882" 10 1 82 1 0.685106036785524
"1883" 10 1 83 1 0.704869787175674
"1884" 10 1 84 0 0.742205075629987
"1885" 10 1 85 1 0.601417480531614
"1886" 10 1 86 1 0.505689309320878
"1887" 10 1 87 1 0.822588335498236
"1888" 10 1 88 1 0.546588493290823
"1889" 10 1 89 0 2.46460265510622
"1890" 10 1 90 1 0.77136007352965
"1891" 10 1 91 1 0.63504696365213
"1892" 10 1 92 1 1.01294850182906
"1893" 10 1 93 1 1.64327330814069
"1894" 10 1 94 1 0.814288531852886
"1895" 10 1 95 0 1.94030657991022
"1896" 10 1 96 1 0.414369662679266
"1897" 10 1 97 1 0.334232052002568
"1898" 10 1 98 1 1.52621895079175
"1899" 10 1 99 1 0.743799855875317
"1900" 10 1 100 1 0.796833821021952
"1901" 10 1 101 1 1.0297239575698
"1902" 10 1 102 1 0.410994453195948
"1903" 10 1 103 1 0.57707363705989
"1904" 10 1 104 1 0.621993826468009
"1905" 10 1 105 1 0.530930810962338
"1906" 10 1 106 1 0.634782428665087
"1907" 10 1 107 0 0.318330959598534
"1908" 10 1 108 0 1.551552648318
"1909" 10 1 109 1 0.48742246518936
"1910" 10 1 110 1 0.782597497752402
"1911" 10 1 111 1 1.41605450855475
"1912" 10 1 112 1 0.3457147937431
"1913" 10 1 113 1 1.14481857165461
"1914" 10 1 114 1 0.4336349965306
"1915" 10 1 115 0 1.04513084277231
"1916" 10 1 116 1 0.965184264938347
"1917" 10 1 117 1 0.861628422523849
"1918" 10 1 118 1 0.613171397375874
"1919" 10 1 119 1 0.433915309535805
"1920" 10 1 120 1 1.34538320488296
"1921" 10 1 121 1 0.394359982935246
"1922" 10 1 122 1 0.884432138887234
"1923" 10 1 123 1 0.607357499235775
"1924" 10 1 124 1 0.439468885143753
"1925" 10 1 125 0 0.378198134634178
"1926" 10 1 126 0 2.64259607472597
"1927" 10 1 127 1 0.684271952833515
"1928" 10 1 128 1 1.33490569226863
"1929" 10 1 129 1 0.627504704968538
"1930" 10 1 130 0 0.473591209997423
"1931" 10 1 131 0 0.496122732343618
"1932" 10 1 132 1 0.924999780845828
"1933" 10 1 133 0 0.549251950502861
"1934" 10 1 134 1 0.391400445461739
"1935" 10 1 135 1 1.27754244048428
"1936" 10 1 136 0 0.956684639782179
"1937" 10 1 137 1 0.29803060896555
"1938" 10 1 138 1 0.356773829051293
"1939" 10 1 139 1 1.74796642173734
"1940" 10 1 140 1 0.630528943394311
"1941" 10 1 141 0 1.19068475366663
"1942" 10 1 142 1 1.20436926576542
"1943" 10 1 143 1 0.785578434224706
"1944" 10 1 144 1 0.315808445611503
"1945" 10 1 145 0 0.450233812074643
"1946" 10 1 146 1 1.63723924758099
"1947" 10 1 147 1 0.382736502216663
"1948" 10 1 148 1 0.574284362879116
"1949" 10 1 149 1 1.11537172312895
"1950" 10 1 150 0 0.442473583651707
"1951" 10 1 151 1 0.454181811631192
"1952" 10 1 152 1 0.388113359246403
"1953" 10 1 153 1 0.32732330341544
"1954" 10 1 154 0 0.584008187521715
"1955" 10 1 155 1 0.678866508976556
"1956" 10 1 156 0 3.63924178934004
"1957" 10 1 157 0 1.70974594265874
"1958" 10 1 158 1 0.841656057171524
"1959" 10 1 159 0 1.4275408696495
"1960" 10 1 160 0 1.5349465495511
"1961" 10 1 161 1 1.45184956209874
"1962" 10 1 162 0 3.22542842290737
"1963" 10 1 163 1 0.476822649771348
"1964" 10 1 164 1 0.445870951258112
"1965" 10 1 165 0 0.995281290970277
"1966" 10 1 166 0 0.878242720201146
"1967" 10 1 167 1 0.329336135788821
"1968" 10 1 168 1 0.370007846671622
"1969" 10 1 169 1 0.718891397675965
"1970" 10 1 170 1 0.490245341088623
"1971" 10 1 171 1 0.519021096869837
"1972" 10 1 172 1 2.74795315350313
"1973" 10 1 173 1 0.662612311768811
"1974" 10 1 174 1 0.628224866830744
"1975" 10 1 175 1 0.753116716449149
"1976" 10 1 176 0 1.32746052553365
"1977" 10 1 177 0 2.48605561638204
"1978" 10 1 178 0 0.467099554965738
"1979" 10 1 179 1 0.404371398422401
"1980" 10 1 180 0 1.25905543042533
"1981" 10 1 181 1 1.77248130204203
"1982" 10 1 182 1 0.390055301455315
"1983" 10 1 183 1 0.367194947845303
"1984" 10 1 184 0 1.17226512510283
"1985" 10 1 185 1 0.402019470188767
"1986" 10 1 186 1 0.512098123607691
"1987" 10 1 187 1 0.451026920101605
"1988" 10 1 188 1 0.340837989140768
"1989" 10 1 189 1 0.974334054972511
"1990" 10 1 190 0 0.360529593287036
"1991" 10 1 191 0 0.453909289191011
"1992" 10 1 192 0 1.17720740327844
"1993" 10 1 193 1 0.457900285732932
"1994" 10 1 194 0 0.979401208052412
"1995" 10 1 195 1 0.635298951434903
"1996" 10 1 196 1 0.349526470037643
"1997" 10 1 197 1 0.969661858860403
"1998" 10 1 198 1 0.451910999249667
"1999" 10 1 199 1 0.342797336368822
"2000" 10 1 200 0 0.495756392524578
"2001" 11 1 1 1 0.464321515991353
"2002" 11 1 2 0 1.81568582689995
"2003" 11 1 3 0 2.28565532761812
"2004" 11 1 4 0 0.392072841319256
"2005" 11 1 5 1 0.330039254649542
"2006" 11 1 6 1 0.599683441640344
"2007" 11 1 7 0 0.709598795246333
"2008" 11 1 8 1 0.595591686227359
"2009" 11 1 9 0 1.01704110939754
"2010" 11 1 10 0 1.40675019881735
"2011" 11 1 11 1 0.512271327781491
"2012" 11 1 12 0 0.624848207898904
"2013" 11 1 13 1 0.511998151849024
"2014" 11 1 14 1 0.441200369952712
"2015" 11 1 15 1 1.09620088965306
"2016" 11 1 16 1 0.368840163422283
"2017" 11 1 17 1 0.963332024853211
"2018" 11 1 18 1 0.707854505026247
"2019" 11 1 19 1 0.695131484404206
"2020" 11 1 20 1 1.66377538993536
"2021" 11 1 21 0 0.694700509913731
"2022" 11 1 22 1 0.483252095218748
"2023" 11 1 23 1 0.336712508880533
"2024" 11 1 24 1 0.671385395755991
"2025" 11 1 25 1 1.70179195199441
"2026" 11 1 26 1 0.336323575231247
"2027" 11 1 27 0 2.20905947331805
"2028" 11 1 28 0 1.67074403455202
"2029" 11 1 29 1 0.903444835435134
"2030" 11 1 30 0 0.904702257570811
"2031" 11 1 31 1 2.21191282944335
"2032" 11 1 32 0 0.92718274352653
"2033" 11 1 33 1 1.17381744188769
"2034" 11 1 34 1 0.915330562883522
"2035" 11 1 35 1 0.743358739477117
"2036" 11 1 36 1 0.406710028462578
"2037" 11 1 37 1 0.485170421731658
"2038" 11 1 38 1 0.854843235883396
"2039" 11 1 39 1 1.60533570312057
"2040" 11 1 40 1 1.24120388798648
"2041" 11 1 41 0 0.344147100045811
"2042" 11 1 42 1 0.485926616228651
"2043" 11 1 43 1 1.04872479566466
"2044" 11 1 44 1 0.430751973953098
"2045" 11 1 45 0 1.3169254156691
"2046" 11 1 46 1 0.445971161740366
"2047" 11 1 47 0 0.889753248399589
"2048" 11 1 48 1 0.355034099178389
"2049" 11 1 49 1 0.329752434292343
"2050" 11 1 50 0 0.657422461720183
"2051" 11 1 51 1 0.367515752837993
"2052" 11 1 52 1 0.707958273506258
"2053" 11 1 53 0 1.01311217150092
"2054" 11 1 54 1 1.66093843778409
"2055" 11 1 55 0 2.42874707679031
"2056" 11 1 56 1 0.804655353902839
"2057" 11 1 57 0 0.770194808995817
"2058" 11 1 58 0 0.584125300480984
"2059" 11 1 59 1 0.402354361360427
"2060" 11 1 60 1 0.97192840044992
"2061" 11 1 61 1 0.747604469021317
"2062" 11 1 62 1 0.611574401884805
"2063" 11 1 63 1 0.340635759362951
"2064" 11 1 64 1 1.98103419997497
"2065" 11 1 65 1 1.14141913754772
"2066" 11 1 66 1 0.317969848069362
"2067" 11 1 67 1 0.547888663256541
"2068" 11 1 68 0 2.49555244592065
"2069" 11 1 69 1 0.831887950795237
"2070" 11 1 70 0 1.89631517261639
"2071" 11 1 71 1 0.285965793672483
"2072" 11 1 72 0 1.47686261295341
"2073" 11 1 73 1 0.645720084560569
"2074" 11 1 74 1 0.444326207238715
"2075" 11 1 75 1 0.36790690110717
"2076" 11 1 76 1 0.756563480632845
"2077" 11 1 77 0 0.471231234588195
"2078" 11 1 78 1 0.831178474368062
"2079" 11 1 79 1 0.44215092403302
"2080" 11 1 80 0 0.495412442930043
"2081" 11 1 81 1 0.861763595929835
"2082" 11 1 82 1 0.572287396383006
"2083" 11 1 83 1 0.294647812929004
"2084" 11 1 84 1 0.807529639037326
"2085" 11 1 85 1 0.544138970855158
"2086" 11 1 86 0 0.694073042894248
"2087" 11 1 87 1 0.410327012145892
"2088" 11 1 88 1 0.561669360080268
"2089" 11 1 89 1 0.391995701443404
"2090" 11 1 90 0 1.30057729076594
"2091" 11 1 91 1 0.44550438025035
"2092" 11 1 92 1 0.474835002683103
"2093" 11 1 93 1 0.556575261309277
"2094" 11 1 94 0 1.36656334541179
"2095" 11 1 95 1 0.819277811114676
"2096" 11 1 96 1 0.606346219335217
"2097" 11 1 97 1 1.76272820007429
"2098" 11 1 98 1 0.493169794580434
"2099" 11 1 99 1 0.418419018008281
"2100" 11 1 100 1 0.56723615881009
"2101" 11 1 101 1 0.452748025457375
"2102" 11 1 102 1 0.571627810930368
"2103" 11 1 103 1 0.361318031816743
"2104" 11 1 104 1 0.970099904384464
"2105" 11 1 105 1 0.396255677387584
"2106" 11 1 106 1 0.534177730647381
"2107" 11 1 107 1 1.3282708104928
"2108" 11 1 108 1 1.06661521470034
"2109" 11 1 109 1 0.44961038935231
"2110" 11 1 110 1 0.93714341129642
"2111" 11 1 111 0 1.00792632740829
"2112" 11 1 112 1 0.681676052340772
"2113" 11 1 113 1 0.300472539036535
"2114" 11 1 114 1 0.456121128906962
"2115" 11 1 115 1 1.1228946382585
"2116" 11 1 116 1 0.554797083984595
"2117" 11 1 117 1 0.655540663529187
"2118" 11 1 118 1 0.488374009621795
"2119" 11 1 119 0 0.373072681202553
"2120" 11 1 120 0 0.769255862824619
"2121" 11 1 121 0 1.56814592157584
"2122" 11 1 122 1 0.89542376634432
"2123" 11 1 123 1 1.50570697753178
"2124" 11 1 124 1 0.508922354064882
"2125" 11 1 125 1 0.578837983533274
"2126" 11 1 126 1 0.529553386968561
"2127" 11 1 127 1 0.726800816658419
"2128" 11 1 128 1 0.351664541096427
"2129" 11 1 129 0 1.55835195411276
"2130" 11 1 130 0 0.576555659000762
"2131" 11 1 131 1 0.786674170625862
"2132" 11 1 132 1 0.67564203092875
"2133" 11 1 133 1 0.426327266275883
"2134" 11 1 134 0 0.568657035737764
"2135" 11 1 135 0 1.30935127578955
"2136" 11 1 136 1 0.585177119960543
"2137" 11 1 137 1 0.640082995559089
"2138" 11 1 138 1 1.01749457140593
"2139" 11 1 139 1 0.616128627271392
"2140" 11 1 140 1 1.12045106994919
"2141" 11 1 141 1 0.375045760538429
"2142" 11 1 142 1 1.68254564794479
"2143" 11 1 143 1 0.598519817085005
"2144" 11 1 144 1 0.583858235973865
"2145" 11 1 145 1 0.464675561821088
"2146" 11 1 146 1 0.341504577103537
"2147" 11 1 147 1 0.670410655216314
"2148" 11 1 148 0 0.627959257628303
"2149" 11 1 149 0 0.454646448764484
"2150" 11 1 150 0 0.674611135919578
"2151" 11 1 151 1 1.12122859295784
"2152" 11 1 152 1 0.904006039783359
"2153" 11 1 153 1 0.448176690303255
"2154" 11 1 154 1 0.968977109761443
"2155" 11 1 155 1 0.645793924342841
"2156" 11 1 156 1 2.04574434807152
"2157" 11 1 157 1 0.623737377299462
"2158" 11 1 158 1 1.14862028200226
"2159" 11 1 159 1 1.27532992259227
"2160" 11 1 160 1 0.979159183519427
"2161" 11 1 161 1 0.854925977410283
"2162" 11 1 162 1 0.829194607647602
"2163" 11 1 163 1 0.418205499614589
"2164" 11 1 164 1 0.56332195776701
"2165" 11 1 165 0 0.449155823442619
"2166" 11 1 166 0 0.509421766647603
"2167" 11 1 167 0 0.487483125218656
"2168" 11 1 168 1 1.00307730984595
"2169" 11 1 169 0 1.13166220619017
"2170" 11 1 170 1 0.459013978676405
"2171" 11 1 171 0 0.485796398655511
"2172" 11 1 172 0 0.332254014855251
"2173" 11 1 173 0 1.03063096211897
"2174" 11 1 174 1 0.453690374951344
"2175" 11 1 175 1 0.431304781505838
"2176" 11 1 176 1 0.790158963915426
"2177" 11 1 177 1 0.505865113386419
"2178" 11 1 178 1 0.889123044820037
"2179" 11 1 179 1 0.469072392994538
"2180" 11 1 180 0 1.00138590119407
"2181" 11 1 181 1 0.590217881482095
"2182" 11 1 182 1 0.44211527374899
"2183" 11 1 183 1 0.747962435962632
"2184" 11 1 184 0 0.625343094168231
"2185" 11 1 185 1 0.438751190209761
"2186" 11 1 186 1 1.13143595060986
"2187" 11 1 187 0 0.971460878262296
"2188" 11 1 188 0 0.757668256166857
"2189" 11 1 189 1 0.557130370819941
"2190" 11 1 190 1 1.10590880916687
"2191" 11 1 191 1 0.534674898577388
"2192" 11 1 192 1 0.526210806258023
"2193" 11 1 193 1 0.802788859038148
"2194" 11 1 194 0 0.517836251531728
"2195" 11 1 195 1 0.346739877063315
"2196" 11 1 196 0 0.500391465876717
"2197" 11 1 197 1 0.573377558931243
"2198" 11 1 198 0 0.801356319139246
"2199" 11 1 199 1 0.490984688375145
"2200" 11 1 200 0 0.713799484314397
"2201" 12 1 1 0 0.876655085769482
"2202" 12 1 2 0 1.16407274368033
"2203" 12 1 3 1 2.33376059530163
"2204" 12 1 4 1 1.53111171237426
"2205" 12 1 5 1 0.966732056949288
"2206" 12 1 6 1 0.499346073854715
"2207" 12 1 7 1 0.43060900160484
"2208" 12 1 8 1 0.305373776030261
"2209" 12 1 9 1 0.402181962636765
"2210" 12 1 10 0 0.797512274070177
"2211" 12 1 11 1 0.35675153913023
"2212" 12 1 12 1 0.589438017950393
"2213" 12 1 13 1 0.61493219492957
"2214" 12 1 14 1 0.415203830438666
"2215" 12 1 15 0 1.15967854499491
"2216" 12 1 16 1 1.23490641748346
"2217" 12 1 17 0 0.691100722671952
"2218" 12 1 18 1 0.622993306258228
"2219" 12 1 19 1 0.338060318586882
"2220" 12 1 20 1 1.0531393259801
"2221" 12 1 21 1 0.542153481648769
"2222" 12 1 22 1 0.518146897600032
"2223" 12 1 23 0 0.391981030628085
"2224" 12 1 24 1 0.424789980887435
"2225" 12 1 25 1 1.05388099157764
"2226" 12 1 26 0 0.649223045269027
"2227" 12 1 27 0 1.26040568529256
"2228" 12 1 28 0 0.417131837876979
"2229" 12 1 29 1 0.368068825291004
"2230" 12 1 30 0 1.22548146127118
"2231" 12 1 31 1 2.43682218697481
"2232" 12 1 32 1 0.623100255004596
"2233" 12 1 33 1 0.491804026466329
"2234" 12 1 34 1 0.654460106219631
"2235" 12 1 35 1 0.369212222308386
"2236" 12 1 36 1 0.36870701212436
"2237" 12 1 37 0 0.605301422075834
"2238" 12 1 38 1 1.07085753291985
"2239" 12 1 39 1 0.451627117791679
"2240" 12 1 40 1 2.44166024579993
"2241" 12 1 41 1 0.387595955014694
"2242" 12 1 42 0 0.884647351764143
"2243" 12 1 43 0 0.524974117603619
"2244" 12 1 44 1 0.409967769888695
"2245" 12 1 45 0 0.41984190495545
"2246" 12 1 46 1 0.510339086675085
"2247" 12 1 47 1 1.46516614525346
"2248" 12 1 48 1 0.724232107205782
"2249" 12 1 49 1 0.531250783000607
"2250" 12 1 50 1 1.13887951311097
"2251" 12 1 51 1 1.59396777550643
"2252" 12 1 52 1 0.404053901634179
"2253" 12 1 53 1 0.463130362519529
"2254" 12 1 54 1 2.36668933736254
"2255" 12 1 55 1 0.476404205340426
"2256" 12 1 56 0 0.845030922750011
"2257" 12 1 57 0 1.05910433371272
"2258" 12 1 58 1 0.743214851569384
"2259" 12 1 59 1 0.330405841372442
"2260" 12 1 60 1 0.463925296967383
"2261" 12 1 61 1 1.03550174319232
"2262" 12 1 62 1 0.967253886849154
"2263" 12 1 63 1 0.593058426989708
"2264" 12 1 64 0 0.966696155911777
"2265" 12 1 65 0 0.471119757647626
"2266" 12 1 66 1 0.592483851460274
"2267" 12 1 67 1 1.77782158429595
"2268" 12 1 68 0 0.399734316387679
"2269" 12 1 69 1 1.7610915623405
"2270" 12 1 70 1 0.595079037688207
"2271" 12 1 71 0 0.732227326776367
"2272" 12 1 72 0 0.668813728361391
"2273" 12 1 73 1 0.79867291393457
"2274" 12 1 74 1 0.405430638934486
"2275" 12 1 75 1 0.320524321932346
"2276" 12 1 76 1 0.71166916386364
"2277" 12 1 77 1 1.8240329562407
"2278" 12 1 78 0 1.07454216328356
"2279" 12 1 79 1 0.34384533385234
"2280" 12 1 80 1 0.447386179263238
"2281" 12 1 81 1 2.28120464349957
"2282" 12 1 82 1 1.07039299206296
"2283" 12 1 83 1 0.386981642856263
"2284" 12 1 84 1 1.09182622085884
"2285" 12 1 85 1 0.412099100984633
"2286" 12 1 86 1 0.702125447190832
"2287" 12 1 87 1 0.610567043294664
"2288" 12 1 88 0 1.69349575658422
"2289" 12 1 89 1 1.05186958829965
"2290" 12 1 90 0 0.692222352796234
"2291" 12 1 91 0 2.35111686464259
"2292" 12 1 92 0 1.7814003680977
"2293" 12 1 93 1 0.63623521877313
"2294" 12 1 94 1 0.993436738134827
"2295" 12 1 95 0 1.71821847283654
"2296" 12 1 96 0 0.682753556343727
"2297" 12 1 97 0 0.618790497960989
"2298" 12 1 98 0 1.00420192074869
"2299" 12 1 99 1 0.355429229323752
"2300" 12 1 100 1 3.97362404088676
"2301" 12 1 101 1 0.368795235635247
"2302" 12 1 102 1 0.516586026280653
"2303" 12 1 103 0 2.83097657528752
"2304" 12 1 104 0 0.71189888772741
"2305" 12 1 105 0 1.11872723260941
"2306" 12 1 106 1 0.549781243279111
"2307" 12 1 107 1 0.928437585811131
"2308" 12 1 108 1 0.353900632929523
"2309" 12 1 109 0 0.479259256991092
"2310" 12 1 110 1 0.603035834174138
"2311" 12 1 111 1 0.952750073074363
"2312" 12 1 112 1 0.477468784920871
"2313" 12 1 113 1 1.64214603308914
"2314" 12 1 114 1 1.36164966762392
"2315" 12 1 115 1 0.841813663908746
"2316" 12 1 116 1 0.441226156434976
"2317" 12 1 117 0 0.741333561960142
"2318" 12 1 118 1 0.383706752106082
"2319" 12 1 119 1 0.488403228127398
"2320" 12 1 120 1 0.766080232237931
"2321" 12 1 121 1 0.538792578954715
"2322" 12 1 122 1 0.47269287086511
"2323" 12 1 123 1 0.417179644926917
"2324" 12 1 124 1 0.637337220924906
"2325" 12 1 125 1 0.476060753256548
"2326" 12 1 126 1 0.530939326689579
"2327" 12 1 127 1 0.347405999047216
"2328" 12 1 128 1 0.296684595110361
"2329" 12 1 129 1 0.634427478791215
"2330" 12 1 130 1 0.319009893890936
"2331" 12 1 131 1 1.15094326350838
"2332" 12 1 132 1 0.62890716832038
"2333" 12 1 133 1 0.575032120747026
"2334" 12 1 134 1 0.375628092227969
"2335" 12 1 135 1 2.94754704010021
"2336" 12 1 136 1 0.577777224477846
"2337" 12 1 137 0 0.582159977104981
"2338" 12 1 138 1 0.297941546865739
"2339" 12 1 139 1 0.929153003626503
"2340" 12 1 140 1 0.628535344557371
"2341" 12 1 141 1 0.698709484522231
"2342" 12 1 142 1 0.953482427950483
"2343" 12 1 143 1 0.484239958635997
"2344" 12 1 144 1 0.674139802336693
"2345" 12 1 145 1 0.574959520381875
"2346" 12 1 146 1 0.304845733598806
"2347" 12 1 147 1 1.34109494576044
"2348" 12 1 148 1 0.361967711495701
"2349" 12 1 149 0 0.849918235534802
"2350" 12 1 150 1 0.696331076945644
"2351" 12 1 151 1 0.354476855423767
"2352" 12 1 152 1 0.745398576919455
"2353" 12 1 153 0 0.483977346798405
"2354" 12 1 154 1 4.12542158888374
"2355" 12 1 155 1 0.435414905525278
"2356" 12 1 156 1 0.52006873870315
"2357" 12 1 157 1 0.696698970063124
"2358" 12 1 158 1 0.818335170444101
"2359" 12 1 159 1 2.22715005346853
"2360" 12 1 160 1 0.38071882998338
"2361" 12 1 161 0 0.866750972515903
"2362" 12 1 162 0 4.83038666509278
"2363" 12 1 163 0 0.339731164040044
"2364" 12 1 164 1 0.662179370881524
"2365" 12 1 165 1 0.540960957820527
"2366" 12 1 166 1 0.281903516304679
"2367" 12 1 167 1 2.19189597481163
"2368" 12 1 168 1 0.493388469745871
"2369" 12 1 169 1 1.11281381640118
"2370" 12 1 170 0 1.04566076204926
"2371" 12 1 171 1 0.592734830157366
"2372" 12 1 172 1 0.342559577411041
"2373" 12 1 173 0 2.08968562353076
"2374" 12 1 174 0 0.868888040992431
"2375" 12 1 175 1 0.533039691539481
"2376" 12 1 176 1 0.53013729695743
"2377" 12 1 177 1 0.41426119859796
"2378" 12 1 178 1 0.840759580932092
"2379" 12 1 179 1 0.564415459250566
"2380" 12 1 180 1 0.462763906566426
"2381" 12 1 181 0 1.89837304478418
"2382" 12 1 182 1 0.404693924650084
"2383" 12 1 183 0 3.98256709490484
"2384" 12 1 184 1 0.316688293229789
"2385" 12 1 185 1 0.381134931335226
"2386" 12 1 186 1 1.58832541303057
"2387" 12 1 187 1 0.993337270077318
"2388" 12 1 188 1 0.512798300334252
"2389" 12 1 189 1 0.391272243230604
"2390" 12 1 190 1 0.560630768450908
"2391" 12 1 191 1 0.923599034508225
"2392" 12 1 192 1 0.473079659145791
"2393" 12 1 193 1 0.926672504886053
"2394" 12 1 194 1 0.54942704281304
"2395" 12 1 195 1 1.80141688457225
"2396" 12 1 196 0 0.598133365004789
"2397" 12 1 197 1 1.68802139010653
"2398" 12 1 198 1 0.407994009519462
"2399" 12 1 199 1 0.704484353140462
"2400" 12 1 200 1 1.02119902566448
"2401" 13 1 1 0 2.5367585323737
"2402" 13 1 2 0 0.89837555590272
"2403" 13 1 3 1 0.351923109630588
"2404" 13 1 4 1 1.09491588392807
"2405" 13 1 5 1 0.492047771899495
"2406" 13 1 6 1 1.12643845622148
"2407" 13 1 7 1 0.561099893281702
"2408" 13 1 8 1 0.831281649311539
"2409" 13 1 9 1 0.546809560282156
"2410" 13 1 10 1 0.595280531181954
"2411" 13 1 11 0 0.478834693075158
"2412" 13 1 12 1 0.461356341885403
"2413" 13 1 13 0 1.11078368759481
"2414" 13 1 14 1 0.62269409106439
"2415" 13 1 15 1 1.72213200981589
"2416" 13 1 16 1 0.438461194247007
"2417" 13 1 17 0 0.483022315782029
"2418" 13 1 18 1 0.555582365445327
"2419" 13 1 19 1 0.428763375576586
"2420" 13 1 20 1 0.809592365577351
"2421" 13 1 21 0 0.409260566906538
"2422" 13 1 22 1 0.987654517786112
"2423" 13 1 23 1 0.378298156571109
"2424" 13 1 24 1 3.42967452421132
"2425" 13 1 25 1 0.74152340806229
"2426" 13 1 26 0 0.561160080548376
"2427" 13 1 27 1 0.58368409755826
"2428" 13 1 28 0 0.87225844429899
"2429" 13 1 29 1 0.817654711709823
"2430" 13 1 30 1 0.521235349109396
"2431" 13 1 31 1 1.98617343640095
"2432" 13 1 32 1 0.569941524763592
"2433" 13 1 33 1 0.291222640186083
"2434" 13 1 34 1 0.518855635704007
"2435" 13 1 35 1 0.345299815909937
"2436" 13 1 36 1 0.685515636241995
"2437" 13 1 37 0 1.10497398239374
"2438" 13 1 38 1 0.358726301672868
"2439" 13 1 39 1 0.50892201183876
"2440" 13 1 40 1 0.992001303286757
"2441" 13 1 41 1 0.391983404279687
"2442" 13 1 42 1 0.403646098824684
"2443" 13 1 43 1 0.549525405132677
"2444" 13 1 44 1 0.880567647149786
"2445" 13 1 45 1 2.16473684265837
"2446" 13 1 46 1 1.94382291205693
"2447" 13 1 47 1 0.414770462244749
"2448" 13 1 48 1 0.896651127861347
"2449" 13 1 49 1 1.26043838901259
"2450" 13 1 50 1 1.72584120348189
"2451" 13 1 51 1 0.434483436247334
"2452" 13 1 52 1 0.544358893903438
"2453" 13 1 53 1 1.75765778755303
"2454" 13 1 54 1 0.707777286771219
"2455" 13 1 55 1 1.96811199462088
"2456" 13 1 56 0 4.9401599450144
"2457" 13 1 57 1 0.978253539464902
"2458" 13 1 58 1 0.301968625695445
"2459" 13 1 59 1 0.378625054838136
"2460" 13 1 60 1 0.494746866985224
"2461" 13 1 61 1 0.76481121499883
"2462" 13 1 62 1 0.471312835933641
"2463" 13 1 63 1 1.17751785198506
"2464" 13 1 64 1 0.904467514411081
"2465" 13 1 65 1 0.35656750473287
"2466" 13 1 66 1 0.905350284184795
"2467" 13 1 67 1 0.760439121668693
"2468" 13 1 68 1 0.507111442347523
"2469" 13 1 69 0 0.419334278278518
"2470" 13 1 70 0 0.949967829457484
"2471" 13 1 71 1 0.490788714785595
"2472" 13 1 72 1 0.993894532153383
"2473" 13 1 73 1 0.381992774800863
"2474" 13 1 74 1 0.540291145121213
"2475" 13 1 75 1 0.592306816171855
"2476" 13 1 76 1 1.01989717062283
"2477" 13 1 77 1 1.85763033326063
"2478" 13 1 78 1 0.957898666811176
"2479" 13 1 79 0 0.499003622678574
"2480" 13 1 80 0 2.16963203399302
"2481" 13 1 81 1 0.471714617635123
"2482" 13 1 82 1 0.364079551422969
"2483" 13 1 83 0 0.337198638579343
"2484" 13 1 84 1 0.540830792821944
"2485" 13 1 85 0 1.38049703227542
"2486" 13 1 86 1 1.40572178973351
"2487" 13 1 87 1 0.707674531847239
"2488" 13 1 88 0 0.884923761257436
"2489" 13 1 89 1 2.10377643494867
"2490" 13 1 90 0 0.791961744271684
"2491" 13 1 91 0 0.889268690805882
"2492" 13 1 92 1 0.535613174395636
"2493" 13 1 93 0 0.466501576150768
"2494" 13 1 94 1 0.559749839049764
"2495" 13 1 95 1 0.722798853043001
"2496" 13 1 96 0 1.05413766483683
"2497" 13 1 97 1 0.372391978674568
"2498" 13 1 98 1 0.487900739958975
"2499" 13 1 99 1 0.454133024089504
"2500" 13 1 100 1 1.70571616613306
"2501" 13 1 101 1 0.467274328557309
"2502" 13 1 102 1 2.31449135666899
"2503" 13 1 103 0 0.377180772302207
"2504" 13 1 104 1 0.955065113330726
"2505" 13 1 105 0 0.609886081432924
"2506" 13 1 106 1 0.494898496599868
"2507" 13 1 107 0 0.468865659494419
"2508" 13 1 108 1 0.472575799395796
"2509" 13 1 109 1 0.421202688331716
"2510" 13 1 110 1 2.86443261715723
"2511" 13 1 111 1 0.381714618729427
"2512" 13 1 112 1 0.860799071355723
"2513" 13 1 113 1 0.408746471505146
"2514" 13 1 114 0 2.10375662684301
"2515" 13 1 115 1 1.22382493425719
"2516" 13 1 116 0 1.37337900515925
"2517" 13 1 117 1 0.460066738703754
"2518" 13 1 118 1 0.317655172074214
"2519" 13 1 119 1 0.942679616873153
"2520" 13 1 120 0 0.75676991363382
"2521" 13 1 121 1 0.488227490490302
"2522" 13 1 122 1 0.430132885373197
"2523" 13 1 123 1 1.39911011220142
"2524" 13 1 124 1 0.581706059126183
"2525" 13 1 125 1 0.375869096971117
"2526" 13 1 126 1 0.57848119531339
"2527" 13 1 127 1 0.699156206644606
"2528" 13 1 128 1 1.02264201183058
"2529" 13 1 129 0 1.13473349771369
"2530" 13 1 130 1 0.391050440210849
"2531" 13 1 131 1 0.609782489855308
"2532" 13 1 132 1 0.578003520357888
"2533" 13 1 133 1 0.472115708884783
"2534" 13 1 134 0 0.48203976798011
"2535" 13 1 135 1 0.626899639057927
"2536" 13 1 136 1 1.50955425732676
"2537" 13 1 137 0 0.356410795714706
"2538" 13 1 138 1 1.50554504491854
"2539" 13 1 139 0 0.490676939336117
"2540" 13 1 140 1 0.313321283158846
"2541" 13 1 141 0 1.25450584297115
"2542" 13 1 142 0 0.456842910199426
"2543" 13 1 143 1 0.326539418573026
"2544" 13 1 144 0 1.15577680734824
"2545" 13 1 145 1 0.954458788311575
"2546" 13 1 146 0 0.393335063694045
"2547" 13 1 147 1 0.857905934127979
"2548" 13 1 148 0 1.01011544837477
"2549" 13 1 149 1 0.755500334527344
"2550" 13 1 150 1 1.06749352319678
"2551" 13 1 151 0 0.656162466139998
"2552" 13 1 152 1 0.989783305179328
"2553" 13 1 153 1 0.326882593867369
"2554" 13 1 154 0 1.55803631768376
"2555" 13 1 155 1 0.394394516033586
"2556" 13 1 156 1 1.75087551901303
"2557" 13 1 157 0 0.639017595571466
"2558" 13 1 158 0 0.337086662313435
"2559" 13 1 159 1 0.401650443127844
"2560" 13 1 160 1 0.607629249848425
"2561" 13 1 161 1 0.554138070327695
"2562" 13 1 162 0 1.28015010471735
"2563" 13 1 163 1 0.447988794501871
"2564" 13 1 164 1 0.507664894823451
"2565" 13 1 165 1 0.32191472372599
"2566" 13 1 166 1 0.427043474884704
"2567" 13 1 167 1 2.23687078903848
"2568" 13 1 168 1 1.0089045414892
"2569" 13 1 169 1 0.611388244613539
"2570" 13 1 170 1 0.556331948758103
"2571" 13 1 171 1 0.514708404370584
"2572" 13 1 172 0 0.845080057087354
"2573" 13 1 173 1 0.477843013633974
"2574" 13 1 174 1 0.491519375160802
"2575" 13 1 175 1 0.940638102411758
"2576" 13 1 176 1 0.5229692613855
"2577" 13 1 177 1 0.33011953760637
"2578" 13 1 178 0 0.922036452446133
"2579" 13 1 179 1 0.324803808646742
"2580" 13 1 180 0 0.355996750010643
"2581" 13 1 181 1 0.526954856580123
"2582" 13 1 182 1 1.62564529371448
"2583" 13 1 183 1 0.83739094256144
"2584" 13 1 184 1 0.487000766863581
"2585" 13 1 185 0 1.13524370972021
"2586" 13 1 186 0 0.458857334830333
"2587" 13 1 187 1 0.521103682528716
"2588" 13 1 188 1 0.453576581121422
"2589" 13 1 189 1 0.341257706115022
"2590" 13 1 190 1 0.259883383184206
"2591" 13 1 191 1 0.889959268404171
"2592" 13 1 192 1 0.702832868006546
"2593" 13 1 193 1 0.813189193839673
"2594" 13 1 194 1 0.884290810438804
"2595" 13 1 195 1 0.923772395099513
"2596" 13 1 196 1 2.0918073256081
"2597" 13 1 197 1 0.444637277483474
"2598" 13 1 198 1 0.473854017637204
"2599" 13 1 199 1 0.509065374318045
"2600" 13 1 200 1 0.571100930587389
"2601" 14 1 1 1 1.02039232292352
"2602" 14 1 2 1 1.15215242268797
"2603" 14 1 3 1 1.25581933617266
"2604" 14 1 4 1 0.672843011226971
"2605" 14 1 5 1 0.835795449701138
"2606" 14 1 6 0 1.0664634490707
"2607" 14 1 7 1 1.16667572447611
"2608" 14 1 8 0 0.908189769433346
"2609" 14 1 9 1 0.578916648065671
"2610" 14 1 10 1 0.871481337232981
"2611" 14 1 11 1 0.538272978091612
"2612" 14 1 12 0 0.746861927502789
"2613" 14 1 13 0 0.453445928834844
"2614" 14 1 14 0 1.42231265433738
"2615" 14 1 15 1 0.556493442211766
"2616" 14 1 16 1 0.45125530884834
"2617" 14 1 17 1 0.637469634399284
"2618" 14 1 18 1 0.349864065588452
"2619" 14 1 19 1 0.452393914766144
"2620" 14 1 20 0 1.9513253661599
"2621" 14 1 21 1 0.420140394762624
"2622" 14 1 22 0 0.744733269824181
"2623" 14 1 23 1 0.436205347687006
"2624" 14 1 24 1 0.704554583960678
"2625" 14 1 25 1 0.503969598884229
"2626" 14 1 26 0 1.52735786697315
"2627" 14 1 27 0 1.25964262282848
"2628" 14 1 28 1 0.56625727394456
"2629" 14 1 29 1 0.4778970520203
"2630" 14 1 30 1 0.592525754611939
"2631" 14 1 31 1 0.602131140419282
"2632" 14 1 32 1 0.468618481716141
"2633" 14 1 33 1 1.91211508132424
"2634" 14 1 34 0 0.626173888004385
"2635" 14 1 35 0 1.93325375371426
"2636" 14 1 36 1 0.437793684642762
"2637" 14 1 37 1 0.340011618836317
"2638" 14 1 38 1 0.431644942369778
"2639" 14 1 39 0 0.485704821191262
"2640" 14 1 40 1 0.399632472744677
"2641" 14 1 41 1 0.633865110319573
"2642" 14 1 42 1 0.413183969508857
"2643" 14 1 43 1 0.549256711970549
"2644" 14 1 44 0 1.14584670081828
"2645" 14 1 45 0 0.964781394016463
"2646" 14 1 46 1 0.464584071760066
"2647" 14 1 47 0 0.49643744670786
"2648" 14 1 48 0 0.324534078685101
"2649" 14 1 49 1 1.11802313711401
"2650" 14 1 50 1 0.519099436763674
"2651" 14 1 51 1 0.519930905061774
"2652" 14 1 52 0 0.350366306988988
"2653" 14 1 53 1 1.04125284405705
"2654" 14 1 54 1 0.368908864366822
"2655" 14 1 55 1 0.937395532657392
"2656" 14 1 56 1 0.76376133499993
"2657" 14 1 57 1 0.875751540862024
"2658" 14 1 58 1 0.481182781124953
"2659" 14 1 59 0 0.752450563228689
"2660" 14 1 60 0 0.809151711968705
"2661" 14 1 61 1 0.406445219329558
"2662" 14 1 62 1 0.573489008652512
"2663" 14 1 63 1 0.653054409591015
"2664" 14 1 64 0 1.79874752968829
"2665" 14 1 65 1 0.489810501796193
"2666" 14 1 66 1 0.608559842297807
"2667" 14 1 67 1 0.466448835319839
"2668" 14 1 68 1 0.355141438089777
"2669" 14 1 69 0 2.67810786711564
"2670" 14 1 70 1 0.364543772105593
"2671" 14 1 71 1 1.08820269649336
"2672" 14 1 72 1 0.677047117002308
"2673" 14 1 73 1 2.0462146666036
"2674" 14 1 74 1 0.341188240852207
"2675" 14 1 75 1 3.74162086125696
"2676" 14 1 76 1 0.435160124493763
"2677" 14 1 77 1 0.487472734395415
"2678" 14 1 78 1 0.423774548348039
"2679" 14 1 79 1 0.340208774772938
"2680" 14 1 80 1 0.285378357023466
"2681" 14 1 81 1 1.04184266941855
"2682" 14 1 82 1 0.421247363664676
"2683" 14 1 83 1 1.46667421019077
"2684" 14 1 84 1 1.10267785736965
"2685" 14 1 85 1 0.586036937575787
"2686" 14 1 86 0 0.669047071326058
"2687" 14 1 87 1 0.771986211830284
"2688" 14 1 88 0 2.39554656691523
"2689" 14 1 89 1 0.871131572527345
"2690" 14 1 90 1 0.635679048164748
"2691" 14 1 91 1 0.639506708416157
"2692" 14 1 92 1 0.306452410317492
"2693" 14 1 93 1 0.810820735113695
"2694" 14 1 94 1 0.732390350836329
"2695" 14 1 95 1 0.521348829847295
"2696" 14 1 96 0 0.544006958762649
"2697" 14 1 97 1 1.17033441415709
"2698" 14 1 98 1 0.710178112545051
"2699" 14 1 99 1 0.589557268389966
"2700" 14 1 100 0 2.42677542874683
"2701" 14 1 101 0 0.897584794338793
"2702" 14 1 102 1 1.55313251803303
"2703" 14 1 103 1 0.499158240936231
"2704" 14 1 104 1 0.979838507030625
"2705" 14 1 105 1 0.370717802871019
"2706" 14 1 106 0 0.442653116854373
"2707" 14 1 107 0 4.72973582024779
"2708" 14 1 108 1 0.608588449721225
"2709" 14 1 109 1 0.775429326340556
"2710" 14 1 110 1 0.454648389896378
"2711" 14 1 111 1 0.369072169390973
"2712" 14 1 112 1 0.991304860298056
"2713" 14 1 113 1 0.412953207570594
"2714" 14 1 114 1 0.407365596000571
"2715" 14 1 115 0 0.776026212385856
"2716" 14 1 116 1 0.88981951726554
"2717" 14 1 117 1 0.823080281727947
"2718" 14 1 118 1 0.401079010301735
"2719" 14 1 119 1 0.387926614276599
"2720" 14 1 120 1 0.757066590743605
"2721" 14 1 121 1 0.384317071169615
"2722" 14 1 122 1 0.92781974958675
"2723" 14 1 123 1 0.394193788833451
"2724" 14 1 124 1 0.597735270326026
"2725" 14 1 125 1 1.11470025879983
"2726" 14 1 126 0 0.800929988786578
"2727" 14 1 127 0 1.06657420787122
"2728" 14 1 128 1 1.61932371344697
"2729" 14 1 129 1 0.895639141473919
"2730" 14 1 130 1 0.673999227866996
"2731" 14 1 131 1 0.404438783725724
"2732" 14 1 132 0 0.55233014051849
"2733" 14 1 133 0 0.478669405291323
"2734" 14 1 134 0 0.365830468071159
"2735" 14 1 135 0 0.444201914965641
"2736" 14 1 136 1 0.392975633886643
"2737" 14 1 137 1 1.07429722816544
"2738" 14 1 138 0 0.47158248574473
"2739" 14 1 139 0 0.548306106950156
"2740" 14 1 140 1 1.44228197065834
"2741" 14 1 141 1 0.447221044032834
"2742" 14 1 142 0 1.71799480061233
"2743" 14 1 143 1 0.319764784353785
"2744" 14 1 144 0 1.3186530717751
"2745" 14 1 145 1 1.6884987422456
"2746" 14 1 146 1 0.339724330990575
"2747" 14 1 147 0 0.801557915770914
"2748" 14 1 148 1 0.380957709284034
"2749" 14 1 149 1 0.343095147399232
"2750" 14 1 150 1 0.515874804464635
"2751" 14 1 151 0 1.22902998117125
"2752" 14 1 152 0 0.671866577905137
"2753" 14 1 153 0 0.483953776974231
"2754" 14 1 154 1 0.769823836315889
"2755" 14 1 155 1 0.370828069938812
"2756" 14 1 156 0 0.573879287267104
"2757" 14 1 157 1 0.593480077441316
"2758" 14 1 158 0 0.388778827900533
"2759" 14 1 159 1 0.385727296238765
"2760" 14 1 160 1 0.617411256465595
"2761" 14 1 161 1 0.291144806136377
"2762" 14 1 162 1 0.421089786067605
"2763" 14 1 163 1 0.43271047393186
"2764" 14 1 164 0 1.05783924207184
"2765" 14 1 165 0 0.591646469888277
"2766" 14 1 166 1 0.725553734534886
"2767" 14 1 167 0 1.21820958373602
"2768" 14 1 168 1 0.474714650030248
"2769" 14 1 169 1 0.821179475319106
"2770" 14 1 170 0 0.459679575229995
"2771" 14 1 171 1 0.391474221693352
"2772" 14 1 172 1 0.877878370752093
"2773" 14 1 173 1 0.327609789834823
"2774" 14 1 174 1 0.519322020475753
"2775" 14 1 175 1 0.335849633818492
"2776" 14 1 176 1 0.701476480160374
"2777" 14 1 177 1 1.1565108852773
"2778" 14 1 178 1 0.418823337530252
"2779" 14 1 179 0 0.548692300583702
"2780" 14 1 180 1 0.465218450403772
"2781" 14 1 181 0 1.31129568811413
"2782" 14 1 182 1 0.483833700400312
"2783" 14 1 183 0 2.0430208171783
"2784" 14 1 184 1 4.98461414226284
"2785" 14 1 185 1 0.630342993093654
"2786" 14 1 186 1 0.427393507597037
"2787" 14 1 187 0 4.60692193554808
"2788" 14 1 188 1 0.738995387658477
"2789" 14 1 189 1 1.54904293421097
"2790" 14 1 190 1 0.788476547583006
"2791" 14 1 191 0 0.72564799893368
"2792" 14 1 192 1 0.559158737841062
"2793" 14 1 193 1 0.419737555970904
"2794" 14 1 194 1 1.79290980571834
"2795" 14 1 195 1 0.372427662410773
"2796" 14 1 196 1 0.460826815717388
"2797" 14 1 197 0 0.440609579166397
"2798" 14 1 198 1 0.422034426665865
"2799" 14 1 199 1 0.864887625124771
"2800" 14 1 200 1 0.583986792388372
"2801" 15 1 1 0 0.864359244952444
"2802" 15 1 2 1 0.978708538128994
"2803" 15 1 3 1 0.493080543718766
"2804" 15 1 4 1 0.562698051980697
"2805" 15 1 5 1 0.605635719284881
"2806" 15 1 6 1 0.342159438835457
"2807" 15 1 7 1 0.894100913298316
"2808" 15 1 8 1 0.848271914440673
"2809" 15 1 9 1 0.393262627133634
"2810" 15 1 10 0 0.495223348160274
"2811" 15 1 11 0 1.99209634810407
"2812" 15 1 12 0 0.638447177273221
"2813" 15 1 13 0 0.675445017514285
"2814" 15 1 14 1 0.818111755239777
"2815" 15 1 15 1 0.426164038140327
"2816" 15 1 16 0 1.69436972546903
"2817" 15 1 17 1 0.435809110890143
"2818" 15 1 18 1 0.485910832421854
"2819" 15 1 19 0 0.646016479284037
"2820" 15 1 20 1 0.429038597500883
"2821" 15 1 21 1 1.53667706026323
"2822" 15 1 22 1 1.11748511265172
"2823" 15 1 23 0 0.722085405519698
"2824" 15 1 24 1 0.843368585396558
"2825" 15 1 25 1 0.833198644885793
"2826" 15 1 26 1 1.67304504228337
"2827" 15 1 27 1 3.70770950182388
"2828" 15 1 28 1 0.607248209238518
"2829" 15 1 29 1 0.361555985742249
"2830" 15 1 30 1 0.700276328027248
"2831" 15 1 31 1 0.891774699923117
"2832" 15 1 32 1 0.554025056393351
"2833" 15 1 33 1 1.0602817664952
"2834" 15 1 34 1 0.465479344513267
"2835" 15 1 35 1 0.575404856754467
"2836" 15 1 36 1 0.395039380625822
"2837" 15 1 37 1 0.780812058034819
"2838" 15 1 38 1 1.65848605627893
"2839" 15 1 39 1 1.09623098312831
"2840" 15 1 40 1 0.568400250781327
"2841" 15 1 41 1 0.361605606775265
"2842" 15 1 42 1 0.657527441509534
"2843" 15 1 43 0 0.429550934740808
"2844" 15 1 44 1 0.555766249076929
"2845" 15 1 45 0 1.78247020023409
"2846" 15 1 46 0 0.692928450926673
"2847" 15 1 47 1 0.503655926087406
"2848" 15 1 48 0 0.554093450430781
"2849" 15 1 49 1 0.881534816598054
"2850" 15 1 50 1 0.415716549354605
"2851" 15 1 51 1 0.830202360832598
"2852" 15 1 52 1 1.04022412206978
"2853" 15 1 53 1 0.850264927649405
"2854" 15 1 54 0 0.473332115950063
"2855" 15 1 55 1 0.411636232744437
"2856" 15 1 56 1 0.475640313418116
"2857" 15 1 57 0 0.977764450897463
"2858" 15 1 58 1 0.654089238306973
"2859" 15 1 59 1 0.501586803610902
"2860" 15 1 60 1 0.410349282629788
"2861" 15 1 61 1 0.395331867235713
"2862" 15 1 62 1 0.814037056731991
"2863" 15 1 63 1 0.440469524201471
"2864" 15 1 64 1 0.328809413621202
"2865" 15 1 65 1 0.454792695464566
"2866" 15 1 66 1 0.752733375233132
"2867" 15 1 67 1 2.16623061335878
"2868" 15 1 68 1 0.790136470248923
"2869" 15 1 69 1 0.603702352296561
"2870" 15 1 70 1 0.327413242033683
"2871" 15 1 71 1 0.839856954246294
"2872" 15 1 72 1 0.588742125382647
"2873" 15 1 73 1 0.670344776057173
"2874" 15 1 74 1 1.35067372524692
"2875" 15 1 75 1 1.36302459756797
"2876" 15 1 76 1 0.419038604503498
"2877" 15 1 77 1 0.671830812291708
"2878" 15 1 78 1 0.357037451790646
"2879" 15 1 79 1 0.75643275260739
"2880" 15 1 80 0 0.875785843231715
"2881" 15 1 81 1 1.15423621659027
"2882" 15 1 82 1 0.360967501723673
"2883" 15 1 83 1 0.344025639330968
"2884" 15 1 84 1 0.750796069374308
"2885" 15 1 85 1 0.373341574956197
"2886" 15 1 86 1 0.497713921567891
"2887" 15 1 87 1 0.491321464654989
"2888" 15 1 88 1 1.01737136037182
"2889" 15 1 89 0 2.45463521435205
"2890" 15 1 90 0 0.83545120397443
"2891" 15 1 91 1 0.420990046719089
"2892" 15 1 92 1 0.506060667727608
"2893" 15 1 93 1 1.88686300596129
"2894" 15 1 94 1 1.30556682044966
"2895" 15 1 95 1 0.432139681153465
"2896" 15 1 96 1 0.39996813314734
"2897" 15 1 97 1 0.459307214681059
"2898" 15 1 98 1 0.765779360988177
"2899" 15 1 99 1 0.397650327549316
"2900" 15 1 100 1 1.93340974294487
"2901" 15 1 101 1 0.803788851109333
"2902" 15 1 102 1 0.557179123779759
"2903" 15 1 103 0 0.787470395452343
"2904" 15 1 104 1 0.327511602913029
"2905" 15 1 105 1 0.320262038013432
"2906" 15 1 106 1 0.504741007902194
"2907" 15 1 107 0 0.474385103553068
"2908" 15 1 108 0 0.92811129697226
"2909" 15 1 109 1 0.319667168578133
"2910" 15 1 110 1 0.999461037433706
"2911" 15 1 111 0 0.701241463212762
"2912" 15 1 112 1 0.380795967050362
"2913" 15 1 113 1 0.708019571097102
"2914" 15 1 114 1 0.482900594771374
"2915" 15 1 115 1 0.346819722781889
"2916" 15 1 116 1 0.655527173645329
"2917" 15 1 117 1 0.527843293009326
"2918" 15 1 118 1 0.520670247076545
"2919" 15 1 119 1 0.459139241239987
"2920" 15 1 120 1 0.491717512691394
"2921" 15 1 121 0 0.819549145005178
"2922" 15 1 122 1 0.640442211510148
"2923" 15 1 123 1 1.8345881899572
"2924" 15 1 124 1 0.525829041094985
"2925" 15 1 125 1 0.669592148315627
"2926" 15 1 126 1 1.16684966903273
"2927" 15 1 127 0 0.487993986795656
"2928" 15 1 128 0 1.33054578935774
"2929" 15 1 129 1 0.355858757409267
"2930" 15 1 130 0 0.597324518596288
