"subjs" "group" "conds" "trial" "choice" "rt"
"1" 1 1 1 1 1 0.335944046539487
"2" 1 1 1 2 0 0.960928073619492
"3" 1 1 1 3 1 0.723413366830675
"4" 1 1 1 4 1 0.857395609619329
"5" 1 1 1 5 1 0.62612592568202
"6" 1 1 1 6 1 0.514565745478729
"7" 1 1 1 7 1 0.582966565940762
"8" 1 1 1 8 1 0.591776817217935
"9" 1 1 1 9 0 0.507484896938782
"10" 1 1 1 10 1 0.923236815893324
"11" 1 1 1 11 0 0.306598363639787
"12" 1 1 1 12 1 1.23769391169841
"13" 1 1 1 13 1 0.761284464976517
"14" 1 1 1 14 1 1.552519680175
"15" 1 1 1 15 1 0.436523836135399
"16" 1 1 1 16 0 3.03367810855969
"17" 1 1 1 17 1 0.580098773187492
"18" 1 1 1 18 1 1.29789099987224
"19" 1 1 1 19 1 0.535662551835412
"20" 1 1 1 20 0 0.444753897156334
"21" 1 1 1 21 1 0.502454668364488
"22" 1 1 1 22 1 0.555312853874872
"23" 1 1 1 23 1 1.16079437796772
"24" 1 1 1 24 1 0.857812291132053
"25" 1 1 1 25 1 0.822254885684466
"26" 1 1 1 26 1 0.961277907563374
"27" 1 1 1 27 1 1.73625042613875
"28" 1 1 1 28 1 2.21955642780149
"29" 1 1 1 29 1 0.726595826823497
"30" 1 1 1 30 1 2.53538247713144
"31" 1 1 1 31 1 0.429467746505281
"32" 1 1 1 32 1 1.66950344494614
"33" 1 1 1 33 0 0.670599613612285
"34" 1 1 1 34 0 0.455153038310818
"35" 1 1 1 35 1 0.321276546369772
"36" 1 1 1 36 1 1.28358455843572
"37" 1 1 1 37 1 1.77454971231776
"38" 1 1 1 38 1 0.831805232068058
"39" 1 1 1 39 1 0.961265960518038
"40" 1 1 1 40 1 0.750176256335573
"41" 1 1 1 41 1 0.872942220318597
"42" 1 1 1 42 1 1.43252133035776
"43" 1 1 1 43 1 1.02383935692511
"44" 1 1 1 44 0 0.999779058568645
"45" 1 1 1 45 1 2.05943505992251
"46" 1 1 1 46 1 0.710189967390616
"47" 1 1 1 47 1 0.365718480612617
"48" 1 1 1 48 1 0.592244435566478
"49" 1 1 1 49 1 0.501046325010248
"50" 1 1 1 50 0 0.542109459701693
"51" 1 1 1 51 1 0.97038899979787
"52" 1 1 1 52 1 0.438956468889257
"53" 1 1 1 53 1 1.08519028235576
"54" 1 1 1 54 1 0.838919124222128
"55" 1 1 1 55 1 1.8286960679742
"56" 1 1 1 56 1 0.835650371435564
"57" 1 1 1 57 1 0.460050228279782
"58" 1 1 1 58 1 0.640550123325316
"59" 1 1 1 59 1 1.70969575324492
"60" 1 1 1 60 1 0.722613353511551
"61" 1 1 1 61 1 1.07249374473817
"62" 1 1 1 62 1 0.48179162558075
"63" 1 1 1 63 0 0.322097660805564
"64" 1 1 1 64 1 0.722094357264927
"65" 1 1 1 65 0 0.268527021323564
"66" 1 1 1 66 1 0.818331177758286
"67" 1 1 1 67 1 0.650756174058188
"68" 1 1 1 68 1 1.59585662706755
"69" 1 1 1 69 1 0.439179485010216
"70" 1 1 1 70 1 0.613662050149171
"71" 1 1 1 71 1 0.880611482291482
"72" 1 1 1 72 1 0.762424594086828
"73" 1 1 1 73 1 0.589845575280022
"74" 1 1 1 74 1 1.11812052997458
"75" 1 1 1 75 1 0.717564880171092
"76" 1 1 1 76 1 0.656431104013464
"77" 1 1 1 77 1 0.453965155133046
"78" 1 1 1 78 0 1.05763545067282
"79" 1 1 1 79 1 2.29703408551123
"80" 1 1 1 80 1 0.773683534988668
"81" 1 1 1 81 1 0.628254772675224
"82" 1 1 1 82 1 0.844894567348296
"83" 1 1 1 83 0 0.697360601532972
"84" 1 1 1 84 1 0.389465459651081
"85" 1 1 1 85 1 1.72743139715097
"86" 1 1 1 86 0 1.31364287696686
"87" 1 1 1 87 1 0.460635510295164
"88" 1 1 1 88 1 1.23846667473204
"89" 1 1 1 89 1 0.606307131465292
"90" 1 1 1 90 1 0.702630369971273
"91" 1 1 1 91 1 0.497704298500903
"92" 1 1 1 92 1 1.44871173948888
"93" 1 1 1 93 1 1.66451155638159
"94" 1 1 1 94 1 0.948663897447521
"95" 1 1 1 95 1 0.445849643478869
"96" 1 1 1 96 1 0.40763172104815
"97" 1 1 1 97 1 0.487239499865565
"98" 1 1 1 98 1 1.28557599385316
"99" 1 1 1 99 1 0.440415512112202
"100" 1 1 1 100 1 0.765566345894942
"101" 1 1 1 101 1 0.462802585389465
"102" 1 1 1 102 1 0.616077483735513
"103" 1 1 1 103 1 0.385156675174832
"104" 1 1 1 104 0 0.456161700793542
"105" 1 1 1 105 1 0.581989402216161
"106" 1 1 1 106 1 0.547999303692486
"107" 1 1 1 107 1 0.435972111429321
"108" 1 1 1 108 1 0.983321402139263
"109" 1 1 1 109 1 1.15457111445116
"110" 1 1 1 110 1 0.839829203574685
"111" 1 1 1 111 1 1.36089966577827
"112" 1 1 1 112 1 1.28546127803973
"113" 1 1 1 113 1 1.50635960017843
"114" 1 1 1 114 1 0.771106270539807
"115" 1 1 1 115 0 0.550506789515726
"116" 1 1 1 116 1 1.57942601697333
"117" 1 1 1 117 1 0.777865846586414
"118" 1 1 1 118 1 1.15521459321375
"119" 1 1 1 119 1 0.601619349133922
"120" 1 1 1 120 1 0.645555948254652
"121" 1 1 1 121 1 1.39919729065988
"122" 1 1 1 122 1 0.994369611081667
"123" 1 1 1 123 0 0.544197554588318
"124" 1 1 1 124 1 0.774464629157446
"125" 1 1 1 125 1 1.57039772271551
"126" 1 1 1 126 1 0.56869006738672
"127" 1 1 1 127 1 0.913223383918172
"128" 1 1 1 128 0 0.629127998667769
"129" 1 1 1 129 1 0.616842280097073
"130" 1 1 1 130 1 0.446297361011384
"131" 1 1 1 131 0 0.59660101899039
"132" 1 1 1 132 1 0.332691880565602
"133" 1 1 1 133 1 0.647085252619814
"134" 1 1 1 134 1 0.448864327078918
"135" 1 1 1 135 1 0.295825972749153
"136" 1 1 1 136 0 1.29437515226728
"137" 1 1 1 137 0 0.592971030578716
"138" 1 1 1 138 1 0.452763217316242
"139" 1 1 1 139 1 0.687379440985853
"140" 1 1 1 140 1 1.34734002109175
"141" 1 1 1 141 1 0.348718973416369
"142" 1 1 1 142 1 0.482764115750091
"143" 1 1 1 143 1 0.324315740868915
"144" 1 1 1 144 1 0.46802102556196
"145" 1 1 1 145 1 0.372525901533896
"146" 1 1 1 146 1 2.03882653360395
"147" 1 1 1 147 1 2.08432183883339
"148" 1 1 1 148 1 0.518904059136519
"149" 1 1 1 149 1 0.622979350738926
"150" 1 1 1 150 1 1.18910821643937
"151" 1 1 1 151 1 0.915339244372444
"152" 1 1 1 152 1 0.529013943012804
"153" 1 1 1 153 1 0.607086667334195
"154" 1 1 1 154 1 1.69471613555239
"155" 1 1 1 155 0 1.28571428885916
"156" 1 1 1 156 1 0.579834070670418
"157" 1 1 1 157 0 0.680512320786249
"158" 1 1 1 158 1 2.23998086239607
"159" 1 1 1 159 0 1.12497201419761
"160" 1 1 1 160 1 1.68634367525671
"161" 1 1 1 161 1 0.971779290280072
"162" 1 1 1 162 1 0.552843706415501
"163" 1 1 1 163 1 0.894312217124505
"164" 1 1 1 164 1 0.700841035283171
"165" 1 1 1 165 1 0.84956817773683
"166" 1 1 1 166 1 0.54028170641046
"167" 1 1 1 167 1 1.29568154929904
"168" 1 1 1 168 1 0.525815240386175
"169" 1 1 1 169 1 0.982787670046557
"170" 1 1 1 170 1 1.0886155251218
"171" 1 1 1 171 1 0.61898295589257
"172" 1 1 1 172 1 0.400819744304754
"173" 1 1 1 173 1 0.963918840211351
"174" 1 1 1 174 1 0.542125805200543
"175" 1 1 1 175 1 0.735166948856553
"176" 1 1 1 176 1 0.510416604274651
"177" 1 1 1 177 1 1.57396426863386
"178" 1 1 1 178 1 0.697780585084343
"179" 1 1 1 179 1 0.827390045100357
"180" 1 1 1 180 1 0.451893600531621
"181" 1 1 1 181 1 1.1185931802534
"182" 1 1 1 182 1 1.02234539090842
"183" 1 1 1 183 1 1.20990214536828
"184" 1 1 1 184 1 0.755214374736184
"185" 1 1 1 185 1 0.875206758341985
"186" 1 1 1 186 1 1.52284843146545
"187" 1 1 1 187 1 0.373252790498547
"188" 1 1 1 188 1 0.991617732937681
"189" 1 1 1 189 1 0.583174040454673
"190" 1 1 1 190 1 0.546750707090832
"191" 1 1 1 191 1 1.31507101827464
"192" 1 1 1 192 1 1.55021697627008
"193" 1 1 1 193 1 0.635038931897841
"194" 1 1 1 194 1 1.32474044045969
"195" 1 1 1 195 1 1.08092757350998
"196" 1 1 1 196 1 2.00278637413983
"197" 1 1 1 197 1 0.399619479628513
"198" 1 1 1 198 1 0.543021449911175
"199" 1 1 1 199 1 0.530648376506753
"200" 1 1 1 200 1 0.411278252438875
"201" 1 1 2 1 1 0.744717338930117
"202" 1 1 2 2 1 0.524368994219461
"203" 1 1 2 3 0 0.602777864859672
"204" 1 1 2 4 1 0.387118165651569
"205" 1 1 2 5 1 0.51377329609124
"206" 1 1 2 6 1 0.366862060285872
"207" 1 1 2 7 1 0.370735240260372
"208" 1 1 2 8 0 0.488569986450719
"209" 1 1 2 9 1 0.526939538957784
"210" 1 1 2 10 1 0.676416371636093
"211" 1 1 2 11 1 0.584486278671771
"212" 1 1 2 12 0 0.641062671468593
"213" 1 1 2 13 1 0.997183222347638
"214" 1 1 2 14 1 0.396469243952539
"215" 1 1 2 15 1 0.841055935688317
"216" 1 1 2 16 1 0.535518376709195
"217" 1 1 2 17 1 0.433414319730364
"218" 1 1 2 18 1 0.57980616426398
"219" 1 1 2 19 1 0.42039880475658
"220" 1 1 2 20 1 0.517663776353933
"221" 1 1 2 21 1 0.309334821708268
"222" 1 1 2 22 1 0.464054421174573
"223" 1 1 2 23 1 0.389362925989553
"224" 1 1 2 24 1 0.607602213714039
"225" 1 1 2 25 0 0.39979449048778
"226" 1 1 2 26 1 0.333658048418583
"227" 1 1 2 27 1 0.443100444759708
"228" 1 1 2 28 1 0.405570245176321
"229" 1 1 2 29 1 0.497826475925278
"230" 1 1 2 30 1 1.50342944951309
"231" 1 1 2 31 1 0.354992648577085
"232" 1 1 2 32 1 0.368981630756054
"233" 1 1 2 33 1 0.364452493307646
"234" 1 1 2 34 1 0.348432380482554
"235" 1 1 2 35 1 0.308954304223182
"236" 1 1 2 36 1 0.434696900597308
"237" 1 1 2 37 1 0.492754869256634
"238" 1 1 2 38 1 0.561865413391497
"239" 1 1 2 39 1 0.494132174480706
"240" 1 1 2 40 1 0.795981510459446
"241" 1 1 2 41 1 0.424720877737971
"242" 1 1 2 42 1 0.861664548794739
"243" 1 1 2 43 0 0.353782233054284
"244" 1 1 2 44 1 0.672634540443774
"245" 1 1 2 45 1 0.390740048982669
"246" 1 1 2 46 1 0.449777137916069
"247" 1 1 2 47 1 0.495810549043119
"248" 1 1 2 48 1 0.389979776856955
"249" 1 1 2 49 1 0.499388259229017
"250" 1 1 2 50 1 0.380943499170011
"251" 1 1 2 51 1 0.391021463606274
"252" 1 1 2 52 1 0.427822029124945
"253" 1 1 2 53 1 0.336429437574232
"254" 1 1 2 54 1 0.326605615428649
"255" 1 1 2 55 1 0.273764354061335
"256" 1 1 2 56 1 0.32823899246729
"257" 1 1 2 57 0 0.554178968677763
"258" 1 1 2 58 0 0.488207917433232
"259" 1 1 2 59 1 0.984416648825631
"260" 1 1 2 60 0 1.15860690361331
"261" 1 1 2 61 1 0.79234311641031
"262" 1 1 2 62 1 0.529982525865082
"263" 1 1 2 63 1 0.335271148371045
"264" 1 1 2 64 1 0.317414708088385
"265" 1 1 2 65 1 0.514843872416532
"266" 1 1 2 66 1 0.641816452375613
"267" 1 1 2 67 1 0.307932188888313
"268" 1 1 2 68 1 0.350321887430502
"269" 1 1 2 69 1 0.796747614959721
"270" 1 1 2 70 1 0.816293487134855
"271" 1 1 2 71 1 0.396266623656498
"272" 1 1 2 72 0 0.429668166936841
"273" 1 1 2 73 1 0.554978239618708
"274" 1 1 2 74 1 1.34467772667576
"275" 1 1 2 75 1 0.797163809183519
"276" 1 1 2 76 1 0.739823840087513
"277" 1 1 2 77 1 0.294257297973614
"278" 1 1 2 78 1 0.345962245408213
"279" 1 1 2 79 1 0.346068174449494
"280" 1 1 2 80 1 0.35605018847785
"281" 1 1 2 81 1 0.363317289720057
"282" 1 1 2 82 1 0.448489086447749
"283" 1 1 2 83 1 0.386704432749888
"284" 1 1 2 84 1 0.59565062946151
"285" 1 1 2 85 1 0.322796950881602
"286" 1 1 2 86 1 0.679862871572375
"287" 1 1 2 87 1 1.06582446002518
"288" 1 1 2 88 1 0.665153323049424
"289" 1 1 2 89 1 0.692079597766744
"290" 1 1 2 90 1 0.597030635009054
"291" 1 1 2 91 1 0.345349230553024
"292" 1 1 2 92 0 0.422841219968162
"293" 1 1 2 93 1 0.415293946009129
"294" 1 1 2 94 1 0.295996554436395
"295" 1 1 2 95 1 0.628661428319523
"296" 1 1 2 96 1 0.365705627879128
"297" 1 1 2 97 1 0.333039642173564
"298" 1 1 2 98 1 1.06731110418285
"299" 1 1 2 99 1 0.381177422466455
"300" 1 1 2 100 1 0.356823444403941
"301" 1 1 2 101 1 0.834293095953297
"302" 1 1 2 102 1 0.374874827582156
"303" 1 1 2 103 1 1.54246492334758
"304" 1 1 2 104 1 1.29030356283439
"305" 1 1 2 105 0 0.3239235716369
"306" 1 1 2 106 1 0.535303606098751
"307" 1 1 2 107 0 0.349696597059257
"308" 1 1 2 108 1 0.849625390974106
"309" 1 1 2 109 1 0.695667929741321
"310" 1 1 2 110 0 0.67500176402973
"311" 1 1 2 111 1 0.45770346498047
"312" 1 1 2 112 1 0.341943846985931
"313" 1 1 2 113 1 0.536615293479059
"314" 1 1 2 114 1 0.459163644870045
"315" 1 1 2 115 1 0.639423227538588
"316" 1 1 2 116 1 0.919167360486463
"317" 1 1 2 117 1 0.705010465162573
"318" 1 1 2 118 1 0.797662929758197
"319" 1 1 2 119 0 0.561835530852666
"320" 1 1 2 120 1 0.659153382318327
"321" 1 1 2 121 0 0.409407276954968
"322" 1 1 2 122 1 0.772742763977964
"323" 1 1 2 123 1 0.333005979532842
"324" 1 1 2 124 1 0.641213835722767
"325" 1 1 2 125 1 0.334470803972101
"326" 1 1 2 126 1 0.401079453377053
"327" 1 1 2 127 1 0.419345313582802
"328" 1 1 2 128 1 0.603858810170321
"329" 1 1 2 129 1 0.399453930863412
"330" 1 1 2 130 1 0.394776270349743
"331" 1 1 2 131 1 0.799747095568804
"332" 1 1 2 132 1 0.83827068381873
"333" 1 1 2 133 1 0.479525403385051
"334" 1 1 2 134 0 0.396252902036998
"335" 1 1 2 135 1 1.0739868629321
"336" 1 1 2 136 1 0.632395128300414
"337" 1 1 2 137 1 0.836097178065917
"338" 1 1 2 138 1 1.00531378327659
"339" 1 1 2 139 1 0.39926687879907
"340" 1 1 2 140 0 0.706318560433341
"341" 1 1 2 141 1 0.954620003296994
"342" 1 1 2 142 1 0.501679614333669
"343" 1 1 2 143 1 0.663780849947594
"344" 1 1 2 144 1 1.39396434839326
"345" 1 1 2 145 1 0.654767360372702
"346" 1 1 2 146 1 0.426894717611605
"347" 1 1 2 147 0 0.589842345666839
"348" 1 1 2 148 1 0.547571524735075
"349" 1 1 2 149 1 0.787212892439449
"350" 1 1 2 150 1 0.629678538940381
"351" 1 1 2 151 0 0.629771135091549
"352" 1 1 2 152 1 0.364812138743466
"353" 1 1 2 153 1 0.343619711871492
"354" 1 1 2 154 1 0.428311720174504
"355" 1 1 2 155 1 0.361815192957409
"356" 1 1 2 156 1 0.492834467344219
"357" 1 1 2 157 1 0.397714843529044
"358" 1 1 2 158 1 0.374180089985253
"359" 1 1 2 159 1 0.349149278311757
"360" 1 1 2 160 1 0.491463847112609
"361" 1 1 2 161 1 0.391350113426568
"362" 1 1 2 162 1 0.455429602253018
"363" 1 1 2 163 1 0.366165399548365
"364" 1 1 2 164 0 0.491627155348193
"365" 1 1 2 165 1 0.302947457266971
"366" 1 1 2 166 1 0.398914502104977
"367" 1 1 2 167 1 0.544822659370257
"368" 1 1 2 168 1 0.668856167970458
"369" 1 1 2 169 1 0.334379269828787
"370" 1 1 2 170 1 0.519117710392457
"371" 1 1 2 171 1 2.02982849264285
"372" 1 1 2 172 1 0.3880007916342
"373" 1 1 2 173 1 0.60348608012055
"374" 1 1 2 174 1 0.403916205525398
"375" 1 1 2 175 1 0.299157650894718
"376" 1 1 2 176 1 0.456624532476533
"377" 1 1 2 177 1 0.895789899764815
"378" 1 1 2 178 1 1.24786936714454
"379" 1 1 2 179 1 0.827291013649432
"380" 1 1 2 180 1 1.06921340001537
"381" 1 1 2 181 1 0.532078547777608
"382" 1 1 2 182 1 0.448179493834032
"383" 1 1 2 183 0 0.793658644810785
"384" 1 1 2 184 1 0.446996158074122
"385" 1 1 2 185 1 0.427255367755191
"386" 1 1 2 186 1 1.17723780475836
"387" 1 1 2 187 1 0.510101974598831
"388" 1 1 2 188 1 0.550940528820735
"389" 1 1 2 189 1 1.6923618633803
"390" 1 1 2 190 1 0.554831605406478
"391" 1 1 2 191 1 0.474447375036776
"392" 1 1 2 192 1 0.729928545822622
"393" 1 1 2 193 1 0.964530138350558
"394" 1 1 2 194 1 0.376610341308638
"395" 1 1 2 195 1 0.754737723963568
"396" 1 1 2 196 1 0.374496081506601
"397" 1 1 2 197 1 0.55963245907682
"398" 1 1 2 198 1 0.523596068068873
"399" 1 1 2 199 0 1.06201332168072
"400" 1 1 2 200 1 0.319830812671222
"401" 1 1 3 1 1 0.595248831260484
"402" 1 1 3 2 1 0.529402040674817
"403" 1 1 3 3 0 0.540503672318067
"404" 1 1 3 4 1 1.22692216799711
"405" 1 1 3 5 1 0.868885206011124
"406" 1 1 3 6 1 0.874954470266122
"407" 1 1 3 7 1 0.552660130607197
"408" 1 1 3 8 1 2.5495887803568
"409" 1 1 3 9 1 0.432698568772757
"410" 1 1 3 10 1 0.388212385657709
"411" 1 1 3 11 1 1.18595802102354
"412" 1 1 3 12 1 0.859801497065229
"413" 1 1 3 13 1 0.601511678899173
"414" 1 1 3 14 0 0.82813089746004
"415" 1 1 3 15 0 0.720534276209539
"416" 1 1 3 16 1 0.650521279925015
"417" 1 1 3 17 1 0.303272698331391
"418" 1 1 3 18 0 0.691883501516189
"419" 1 1 3 19 1 0.880191700999858
"420" 1 1 3 20 1 0.633022437897977
"421" 1 1 3 21 1 1.17807489088364
"422" 1 1 3 22 1 0.983626859350363
"423" 1 1 3 23 1 0.46785597811034
"424" 1 1 3 24 1 1.44371804307285
"425" 1 1 3 25 1 0.564987212823704
"426" 1 1 3 26 1 0.493929097241256
"427" 1 1 3 27 1 1.39625128088123
"428" 1 1 3 28 1 0.365132052008994
"429" 1 1 3 29 1 0.648845512667904
"430" 1 1 3 30 1 0.999840519692749
"431" 1 1 3 31 1 2.13248563458817
"432" 1 1 3 32 1 0.416497864671983
"433" 1 1 3 33 1 0.496452096975874
"434" 1 1 3 34 0 1.0627780583275
"435" 1 1 3 35 1 1.18205772051681
"436" 1 1 3 36 1 0.635046014600899
"437" 1 1 3 37 1 0.551567014190834
"438" 1 1 3 38 1 0.48883929287456
"439" 1 1 3 39 1 0.937047156671062
"440" 1 1 3 40 1 0.416076370594325
"441" 1 1 3 41 1 0.690255470903125
"442" 1 1 3 42 1 0.500619379011448
"443" 1 1 3 43 1 0.672831913386937
"444" 1 1 3 44 1 0.918785283437697
"445" 1 1 3 45 0 0.736784464043565
"446" 1 1 3 46 0 0.517494061056292
"447" 1 1 3 47 1 1.27435635926132
"448" 1 1 3 48 1 0.883118031071965
"449" 1 1 3 49 1 0.3635160882317
"450" 1 1 3 50 1 0.574456031432608
"451" 1 1 3 51 1 1.32718453270313
"452" 1 1 3 52 1 0.636939549400937
"453" 1 1 3 53 1 0.407989026482683
"454" 1 1 3 54 0 0.466312944869045
"455" 1 1 3 55 1 1.5947864313121
"456" 1 1 3 56 1 1.23746136670932
"457" 1 1 3 57 1 2.02352168342215
"458" 1 1 3 58 1 0.526270701276604
"459" 1 1 3 59 0 1.14455693083699
"460" 1 1 3 60 1 0.857768749673152
"461" 1 1 3 61 1 0.567873885116074
"462" 1 1 3 62 0 0.469466324167093
"463" 1 1 3 63 1 2.59916034777556
"464" 1 1 3 64 1 0.434799833485624
"465" 1 1 3 65 1 0.391537299553631
"466" 1 1 3 66 1 0.410363407977391
"467" 1 1 3 67 1 1.9543052183562
"468" 1 1 3 68 1 0.423120939046377
"469" 1 1 3 69 1 0.298932466930943
"470" 1 1 3 70 1 0.572225375874899
"471" 1 1 3 71 1 1.20390662729694
"472" 1 1 3 72 1 1.41787001422979
"473" 1 1 3 73 1 0.861746201759204
"474" 1 1 3 74 1 0.961165141124278
"475" 1 1 3 75 1 1.10851377426763
"476" 1 1 3 76 1 0.689830814023502
"477" 1 1 3 77 1 0.702518351436127
"478" 1 1 3 78 1 0.436407544773305
"479" 1 1 3 79 1 1.42141096681985
"480" 1 1 3 80 0 0.596894149782136
"481" 1 1 3 81 1 0.56412788917427
"482" 1 1 3 82 0 0.558898496403359
"483" 1 1 3 83 1 1.21191479723528
"484" 1 1 3 84 1 1.6946919691239
"485" 1 1 3 85 1 2.3717117638709
"486" 1 1 3 86 1 0.461437818396138
"487" 1 1 3 87 1 0.561927355251275
"488" 1 1 3 88 1 1.41811868420127
"489" 1 1 3 89 1 0.55523119143676
"490" 1 1 3 90 1 0.408674975035945
"491" 1 1 3 91 1 0.454602459574817
"492" 1 1 3 92 1 1.05609812405426
"493" 1 1 3 93 1 0.698450037878472
"494" 1 1 3 94 1 1.92289454932837
"495" 1 1 3 95 1 1.27729503737483
"496" 1 1 3 96 1 1.49358833050239
"497" 1 1 3 97 1 1.53443117466616
"498" 1 1 3 98 1 1.01616034144955
"499" 1 1 3 99 1 0.818404920534231
"500" 1 1 3 100 1 0.581988988154102
"501" 1 1 3 101 1 0.991235825758893
"502" 1 1 3 102 0 0.669423026730074
"503" 1 1 3 103 1 0.979058167254087
"504" 1 1 3 104 1 0.658306617971277
"505" 1 1 3 105 1 0.496431429579388
"506" 1 1 3 106 0 0.463211436177604
"507" 1 1 3 107 1 0.469704539895058
"508" 1 1 3 108 1 0.945772443611175
"509" 1 1 3 109 1 1.23224945695396
"510" 1 1 3 110 1 0.79007343572937
"511" 1 1 3 111 0 1.61647913355054
"512" 1 1 3 112 1 0.314953941394808
"513" 1 1 3 113 1 0.31340695576719
"514" 1 1 3 114 1 1.05319607300987
"515" 1 1 3 115 1 2.15158245965838
"516" 1 1 3 116 1 1.08279920767783
"517" 1 1 3 117 1 0.817078690673225
"518" 1 1 3 118 0 0.567765350074973
"519" 1 1 3 119 1 0.353563464354025
"520" 1 1 3 120 1 0.454113106459845
"521" 1 1 3 121 1 0.715413807927398
"522" 1 1 3 122 1 0.598055215265835
"523" 1 1 3 123 1 0.823317556969821
"524" 1 1 3 124 1 0.499569458451355
"525" 1 1 3 125 1 0.415824162722332
"526" 1 1 3 126 1 0.96174892934924
"527" 1 1 3 127 1 0.399170464959694
"528" 1 1 3 128 0 0.766223602079554
"529" 1 1 3 129 1 0.876947337619495
"530" 1 1 3 130 1 0.722455702287844
"531" 1 1 3 131 1 0.844344504785026
"532" 1 1 3 132 1 1.26145813910803
"533" 1 1 3 133 0 0.693592201908352
"534" 1 1 3 134 1 0.426943882569671
"535" 1 1 3 135 1 0.541638583617285
"536" 1 1 3 136 1 0.798299773772014
"537" 1 1 3 137 1 0.639605616884073
"538" 1 1 3 138 1 0.936515973601723
"539" 1 1 3 139 1 1.21418781161681
"540" 1 1 3 140 0 0.686431835502619
"541" 1 1 3 141 1 1.00487335013202
"542" 1 1 3 142 1 2.17254591397918
"543" 1 1 3 143 1 1.61121161848004
"544" 1 1 3 144 1 0.848457952273777
"545" 1 1 3 145 1 0.691003585653147
"546" 1 1 3 146 1 0.472573893328197
"547" 1 1 3 147 0 1.36992333519575
"548" 1 1 3 148 1 2.50424248986645
"549" 1 1 3 149 1 0.335740392401349
"550" 1 1 3 150 1 0.722424892243696
"551" 1 1 3 151 1 0.370060631303815
"552" 1 1 3 152 1 0.37972496981849
"553" 1 1 3 153 1 0.831687543806853
"554" 1 1 3 154 0 0.432995433073491
"555" 1 1 3 155 1 0.568022802998312
"556" 1 1 3 156 0 0.546482305308105
"557" 1 1 3 157 1 0.831498258812586
"558" 1 1 3 158 1 1.15035461434838
"559" 1 1 3 159 1 0.424109799664933
"560" 1 1 3 160 1 1.12734494598303
"561" 1 1 3 161 1 0.824219138586661
"562" 1 1 3 162 0 0.34961943064467
"563" 1 1 3 163 1 2.19267392715556
"564" 1 1 3 164 0 0.468872316807276
"565" 1 1 3 165 1 0.531264587680344
"566" 1 1 3 166 1 0.923662126439391
"567" 1 1 3 167 1 0.79759753016592
"568" 1 1 3 168 1 0.612295224788599
"569" 1 1 3 169 1 0.451138011153322
"570" 1 1 3 170 0 1.98364549227641
"571" 1 1 3 171 0 0.459388066431973
"572" 1 1 3 172 1 0.785799625982298
"573" 1 1 3 173 1 1.23334609208489
"574" 1 1 3 174 1 1.65235831192881
"575" 1 1 3 175 1 0.406708143716212
"576" 1 1 3 176 0 0.593227938000113
"577" 1 1 3 177 1 0.519158281925367
"578" 1 1 3 178 1 0.69622108354629
"579" 1 1 3 179 1 0.916970795687288
"580" 1 1 3 180 0 0.486731872327393
"581" 1 1 3 181 1 0.372650892540114
"582" 1 1 3 182 0 0.833741566616111
"583" 1 1 3 183 1 0.284674860591069
"584" 1 1 3 184 1 0.673571773020085
"585" 1 1 3 185 0 0.839706292991061
"586" 1 1 3 186 1 0.901377139271936
"587" 1 1 3 187 1 0.495940570264822
"588" 1 1 3 188 0 0.738897616761271
"589" 1 1 3 189 0 0.711851668799296
"590" 1 1 3 190 1 1.15329186276183
"591" 1 1 3 191 1 0.516842617333401
"592" 1 1 3 192 1 0.84670032313047
"593" 1 1 3 193 1 0.989638400983531
"594" 1 1 3 194 1 0.411235118723242
"595" 1 1 3 195 1 1.44239230195899
"596" 1 1 3 196 1 2.29854871753394
"597" 1 1 3 197 1 1.29925453944854
"598" 1 1 3 198 1 0.631243165258551
"599" 1 1 3 199 1 0.738764203259023
"600" 1 1 3 200 1 0.862638386902399
"601" 2 1 1 1 0 1.48026440911042
"602" 2 1 1 2 0 0.415881047287723
"603" 2 1 1 3 0 2.55668192928308
"604" 2 1 1 4 0 0.460925495228963
"605" 2 1 1 5 1 0.790388701074058
"606" 2 1 1 6 0 0.969468722838909
"607" 2 1 1 7 1 0.438033304209588
"608" 2 1 1 8 0 0.852046695499448
"609" 2 1 1 9 1 1.03251954781963
"610" 2 1 1 10 0 0.35311377921328
"611" 2 1 1 11 1 1.01043555259518
"612" 2 1 1 12 1 0.830857062580763
"613" 2 1 1 13 1 1.5977642794319
"614" 2 1 1 14 0 0.869438459723955
"615" 2 1 1 15 0 0.821847912624013
"616" 2 1 1 16 0 1.65585494084097
"617" 2 1 1 17 1 0.378197416101117
"618" 2 1 1 18 0 0.390034608017886
"619" 2 1 1 19 1 0.437868768267334
"620" 2 1 1 20 0 1.25049400782422
"621" 2 1 1 21 0 1.29934346714197
"622" 2 1 1 22 1 0.398356699754251
"623" 2 1 1 23 1 1.16509019130259
"624" 2 1 1 24 0 0.99387119458965
"625" 2 1 1 25 0 1.40741494294559
"626" 2 1 1 26 0 0.486964479746996
"627" 2 1 1 27 1 0.936715078982059
"628" 2 1 1 28 0 0.292301984739723
"629" 2 1 1 29 0 0.608126504867803
"630" 2 1 1 30 1 0.368442653007805
"631" 2 1 1 31 1 0.25722447269503
"632" 2 1 1 32 1 0.396030304228887
"633" 2 1 1 33 0 0.579811287355376
"634" 2 1 1 34 0 0.470171116376994
"635" 2 1 1 35 0 0.795526952713728
"636" 2 1 1 36 0 0.57917265842855
"637" 2 1 1 37 0 0.640121477338485
"638" 2 1 1 38 1 0.877829669613857
"639" 2 1 1 39 1 0.639935532766162
"640" 2 1 1 40 1 1.38596763801156
"641" 2 1 1 41 0 0.678226980587933
"642" 2 1 1 42 1 0.424227253791178
"643" 2 1 1 43 0 0.720805767611601
"644" 2 1 1 44 0 1.39443872975349
"645" 2 1 1 45 0 0.302060654775472
"646" 2 1 1 46 0 0.332584551972337
"647" 2 1 1 47 1 0.346565733716358
"648" 2 1 1 48 0 0.5088135358328
"649" 2 1 1 49 1 1.07165952887293
"650" 2 1 1 50 0 2.94444326740061
"651" 2 1 1 51 1 0.524559281223221
"652" 2 1 1 52 0 1.19551234571403
"653" 2 1 1 53 0 0.629189265865833
"654" 2 1 1 54 0 0.564989590283483
"655" 2 1 1 55 1 0.417639375975355
"656" 2 1 1 56 1 0.535145371140447
"657" 2 1 1 57 1 1.11537001482211
"658" 2 1 1 58 0 0.97622709818813
"659" 2 1 1 59 0 0.86361584019498
"660" 2 1 1 60 0 1.53324280458293
"661" 2 1 1 61 0 0.842955666856607
"662" 2 1 1 62 1 0.502394122269237
"663" 2 1 1 63 1 0.882751368286088
"664" 2 1 1 64 0 0.336059292569989
"665" 2 1 1 65 1 0.985945782770403
"666" 2 1 1 66 0 2.49549360962445
"667" 2 1 1 67 1 0.621402412293246
"668" 2 1 1 68 1 0.514722631409531
"669" 2 1 1 69 0 0.368245617001317
"670" 2 1 1 70 0 0.413339727440383
"671" 2 1 1 71 1 0.425318556824699
"672" 2 1 1 72 0 0.410206224838505
"673" 2 1 1 73 0 2.35726473579253
"674" 2 1 1 74 1 2.25109628407843
"675" 2 1 1 75 0 0.395373344901251
"676" 2 1 1 76 1 0.573536007888848
"677" 2 1 1 77 0 1.05206722660107
"678" 2 1 1 78 1 1.53897410602891
"679" 2 1 1 79 0 0.441964237170061
"680" 2 1 1 80 1 1.22493125385954
"681" 2 1 1 81 1 0.431061395152239
"682" 2 1 1 82 0 0.418488711371552
"683" 2 1 1 83 0 1.86957314360607
"684" 2 1 1 84 1 0.839121554041049
"685" 2 1 1 85 1 1.21622438840335
"686" 2 1 1 86 1 0.908687101237243
"687" 2 1 1 87 0 1.66722783427592
"688" 2 1 1 88 0 0.406530201397603
"689" 2 1 1 89 0 3.67524189015199
"690" 2 1 1 90 0 0.953860463497462
"691" 2 1 1 91 1 0.60477183423005
"692" 2 1 1 92 1 0.749905084473547
"693" 2 1 1 93 1 0.254018094473286
"694" 2 1 1 94 1 0.456397580206627
"695" 2 1 1 95 0 0.751422114624176
"696" 2 1 1 96 0 1.48769146137312
"697" 2 1 1 97 0 0.931185358361108
"698" 2 1 1 98 1 1.0630220413038
"699" 2 1 1 99 0 0.547663869558601
"700" 2 1 1 100 1 1.74978603255935
"701" 2 1 1 101 1 2.14972352531482
"702" 2 1 1 102 1 1.00991770603252
"703" 2 1 1 103 0 0.717772531392984
"704" 2 1 1 104 0 0.74999830415356
"705" 2 1 1 105 0 0.464481567905517
"706" 2 1 1 106 1 1.4348598375835
"707" 2 1 1 107 0 0.715642140633194
"708" 2 1 1 108 0 0.877929898010567
"709" 2 1 1 109 1 0.350188643452246
"710" 2 1 1 110 0 1.18887266845582
"711" 2 1 1 111 0 1.37163510800898
"712" 2 1 1 112 0 0.727284608738031
"713" 2 1 1 113 1 0.995413318064762
"714" 2 1 1 114 1 0.683899316943251
"715" 2 1 1 115 0 0.277195942348801
"716" 2 1 1 116 1 0.494665772128385
"717" 2 1 1 117 0 0.470084816448391
"718" 2 1 1 118 0 0.597518902993063
"719" 2 1 1 119 0 0.488936515215784
"720" 2 1 1 120 1 0.584195580393309
"721" 2 1 1 121 0 1.25665868443064
"722" 2 1 1 122 0 0.681749484305736
"723" 2 1 1 123 0 0.693798116631573
"724" 2 1 1 124 1 1.73260176298139
"725" 2 1 1 125 1 0.808495188769652
"726" 2 1 1 126 1 0.493953967523528
"727" 2 1 1 127 0 0.638875809354009
"728" 2 1 1 128 0 0.549855496807955
"729" 2 1 1 129 1 0.649434203765355
"730" 2 1 1 130 0 0.845729515583953
"731" 2 1 1 131 1 0.433299483576091
"732" 2 1 1 132 1 1.8274017223902
"733" 2 1 1 133 1 0.540872187260538
"734" 2 1 1 134 1 1.22470819820464
"735" 2 1 1 135 1 0.543821261642734
"736" 2 1 1 136 1 1.49423326767026
"737" 2 1 1 137 0 1.56662131367554
"738" 2 1 1 138 0 0.462798839128809
"739" 2 1 1 139 0 0.446244890108239
"740" 2 1 1 140 1 1.13204871825897
"741" 2 1 1 141 1 1.02234359655296
"742" 2 1 1 142 1 0.711352458296577
"743" 2 1 1 143 0 0.508075549001573
"744" 2 1 1 144 0 0.469724833319429
"745" 2 1 1 145 0 0.777252816056367
"746" 2 1 1 146 1 0.684184275910258
"747" 2 1 1 147 0 0.722779883474344
"748" 2 1 1 148 1 0.710656063305214
"749" 2 1 1 149 1 1.96172192366328
"750" 2 1 1 150 1 0.300968854546314
"751" 2 1 1 151 1 0.553706646331586
"752" 2 1 1 152 0 0.329395313892048
"753" 2 1 1 153 1 0.269222259194357
"754" 2 1 1 154 0 0.370178742824821
"755" 2 1 1 155 0 0.272853162964806
"756" 2 1 1 156 1 0.531340272785863
"757" 2 1 1 157 1 1.3761785075774
"758" 2 1 1 158 0 0.384524294506526
"759" 2 1 1 159 1 0.638807689656271
"760" 2 1 1 160 1 0.353950090014143
"761" 2 1 1 161 0 0.316381320238346
"762" 2 1 1 162 1 0.473012502116384
"763" 2 1 1 163 0 1.5019405224144
"764" 2 1 1 164 0 0.648180617236765
"765" 2 1 1 165 0 0.491320646080887
"766" 2 1 1 166 0 0.989262580360286
"767" 2 1 1 167 0 0.792334551589796
"768" 2 1 1 168 0 0.61243220691476
"769" 2 1 1 169 0 1.687943970775
"770" 2 1 1 170 1 0.399784471391467
"771" 2 1 1 171 0 0.242667581397807
"772" 2 1 1 172 0 1.08923071969044
"773" 2 1 1 173 0 1.05348876746721
"774" 2 1 1 174 0 0.983614128127927
"775" 2 1 1 175 0 1.11358607209614
"776" 2 1 1 176 1 0.538024594614981
"777" 2 1 1 177 0 1.28808046685392
"778" 2 1 1 178 0 0.495884097425966
"779" 2 1 1 179 0 0.555648513428867
"780" 2 1 1 180 0 0.483184861200396
"781" 2 1 1 181 0 0.81937309118174
"782" 2 1 1 182 1 0.41986348262988
"783" 2 1 1 183 0 0.362497989303898
"784" 2 1 1 184 0 0.422904618721455
"785" 2 1 1 185 1 0.436723939764546
"786" 2 1 1 186 1 1.32323305522418
"787" 2 1 1 187 1 0.364734639878152
"788" 2 1 1 188 0 0.553055148606421
"789" 2 1 1 189 1 0.718455613532569
"790" 2 1 1 190 0 0.731753244695487
"791" 2 1 1 191 1 1.16521690417617
"792" 2 1 1 192 0 0.457112868083175
"793" 2 1 1 193 1 0.760583795465995
"794" 2 1 1 194 1 0.948651521357941
"795" 2 1 1 195 1 0.372005884689745
"796" 2 1 1 196 0 0.509504480770091
"797" 2 1 1 197 1 0.300775474481517
"798" 2 1 1 198 1 0.668425722707296
"799" 2 1 1 199 0 0.870294160866644
"800" 2 1 1 200 1 0.793009027429391
"801" 2 1 2 1 0 1.3841478822222
"802" 2 1 2 2 0 2.57488454460888
"803" 2 1 2 3 1 0.733740334499394
"804" 2 1 2 4 1 2.21673048613127
"805" 2 1 2 5 0 0.708810759552754
"806" 2 1 2 6 1 1.3210918227653
"807" 2 1 2 7 0 1.3075318520118
"808" 2 1 2 8 1 1.06913511214009
"809" 2 1 2 9 1 0.576427303625038
"810" 2 1 2 10 0 0.929907384196995
"811" 2 1 2 11 1 4.40377348020207
"812" 2 1 2 12 0 1.59059300354309
"813" 2 1 2 13 1 1.78904806799558
"814" 2 1 2 14 0 0.402226202631369
"815" 2 1 2 15 1 1.57570316751581
"816" 2 1 2 16 1 2.19548072172422
"817" 2 1 2 17 1 1.15099784353352
"818" 2 1 2 18 0 2.00414164756378
"819" 2 1 2 19 1 0.388775601553265
"820" 2 1 2 20 0 0.550604567316361
"821" 2 1 2 21 1 0.635939249097602
"822" 2 1 2 22 0 1.37928890322358
"823" 2 1 2 23 1 0.42513317759498
"824" 2 1 2 24 1 1.52056296976237
"825" 2 1 2 25 1 2.44320971846557
"826" 2 1 2 26 1 0.99247621795116
"827" 2 1 2 27 1 1.06062933854712
"828" 2 1 2 28 0 1.53666541846911
"829" 2 1 2 29 1 0.362907379784854
"830" 2 1 2 30 1 0.399113482638029
"831" 2 1 2 31 1 3.90666390978242
"832" 2 1 2 32 1 0.380432117328281
"833" 2 1 2 33 1 0.55090396444709
"834" 2 1 2 34 0 1.96742963239993
"835" 2 1 2 35 0 0.394020308541367
"836" 2 1 2 36 0 0.85261372980685
"837" 2 1 2 37 1 0.698063286569202
"838" 2 1 2 38 1 6.22102912098332
"839" 2 1 2 39 1 0.793239133130526
"840" 2 1 2 40 1 2.17930988755729
"841" 2 1 2 41 0 2.24010744048958
"842" 2 1 2 42 1 0.508198518391
"843" 2 1 2 43 1 2.20252381336968
"844" 2 1 2 44 1 0.380712036394048
"845" 2 1 2 45 1 2.33813526429795
"846" 2 1 2 46 1 2.01907483375422
"847" 2 1 2 47 0 0.725281010266393
"848" 2 1 2 48 0 3.25173209868651
"849" 2 1 2 49 0 0.9492863224498
"850" 2 1 2 50 0 2.10510548923723
"851" 2 1 2 51 1 2.83178936906019
"852" 2 1 2 52 0 0.51306411397038
"853" 2 1 2 53 1 1.31099185606069
"854" 2 1 2 54 1 0.7226330868355
"855" 2 1 2 55 1 0.730554143841378
"856" 2 1 2 56 1 0.627388365964172
"857" 2 1 2 57 1 1.25492866791319
"858" 2 1 2 58 1 3.3738938685148
"859" 2 1 2 59 1 0.632741849918384
"860" 2 1 2 60 1 0.762759104901692
"861" 2 1 2 61 1 0.676180850642268
"862" 2 1 2 62 0 2.20178237079992
"863" 2 1 2 63 1 0.578255631499691
"864" 2 1 2 64 1 0.672205609254772
"865" 2 1 2 65 0 1.82529453139193
"866" 2 1 2 66 1 1.04563913452649
"867" 2 1 2 67 1 1.51648090378451
"868" 2 1 2 68 1 1.7990858557974
"869" 2 1 2 69 1 0.868919876343804
"870" 2 1 2 70 1 0.48051412762166
"871" 2 1 2 71 1 1.38961318051955
"872" 2 1 2 72 0 2.27297880499507
"873" 2 1 2 73 0 1.80774732917827
"874" 2 1 2 74 0 1.3429968885819
"875" 2 1 2 75 1 0.935831912095426
"876" 2 1 2 76 0 0.823712150383974
"877" 2 1 2 77 1 0.726293359779753
"878" 2 1 2 78 1 0.691389161764411
"879" 2 1 2 79 1 1.13836284057144
"880" 2 1 2 80 0 2.03147135195113
"881" 2 1 2 81 1 1.21936163950781
"882" 2 1 2 82 1 0.713066696159076
"883" 2 1 2 83 1 0.553646756020142
"884" 2 1 2 84 0 0.858590335045243
"885" 2 1 2 85 1 0.423573160734493
"886" 2 1 2 86 1 0.409176115088398
"887" 2 1 2 87 1 1.53891930487449
"888" 2 1 2 88 0 0.32939141518902
"889" 2 1 2 89 1 0.877456978224684
"890" 2 1 2 90 0 0.735114636970451
"891" 2 1 2 91 1 0.930942750393646
"892" 2 1 2 92 1 1.72132065758714
"893" 2 1 2 93 0 0.40510358268139
"894" 2 1 2 94 0 0.997017352095805
"895" 2 1 2 95 0 0.871377219490008
"896" 2 1 2 96 0 0.801266325651202
"897" 2 1 2 97 1 0.857517803403549
"898" 2 1 2 98 1 0.516747766537359
"899" 2 1 2 99 1 0.586870344911004
"900" 2 1 2 100 1 0.515770114548039
"901" 2 1 2 101 1 1.03795189846703
"902" 2 1 2 102 1 4.04740453512804
"903" 2 1 2 103 1 1.45160386975342
"904" 2 1 2 104 0 0.669867630751338
"905" 2 1 2 105 1 0.397918252942385
"906" 2 1 2 106 1 0.878075109470869
"907" 2 1 2 107 1 3.85372072676127
"908" 2 1 2 108 1 1.59622070360975
"909" 2 1 2 109 1 2.14215876653674
"910" 2 1 2 110 0 0.510345255691325
"911" 2 1 2 111 1 1.29968536000699
"912" 2 1 2 112 1 1.38969446655852
"913" 2 1 2 113 0 2.0060998067162
"914" 2 1 2 114 1 3.17334520800854
"915" 2 1 2 115 1 1.35877409185586
"916" 2 1 2 116 1 3.6111124219785
"917" 2 1 2 117 1 0.385467128467746
"918" 2 1 2 118 1 1.0560548459955
"919" 2 1 2 119 1 0.954263151723193
"920" 2 1 2 120 1 0.994282280059531
"921" 2 1 2 121 1 1.66450623923237
"922" 2 1 2 122 0 0.720768113397062
"923" 2 1 2 123 1 1.28243769273092
"924" 2 1 2 124 0 1.17025557594653
"925" 2 1 2 125 1 0.896844774019206
"926" 2 1 2 126 1 0.736311687550275
"927" 2 1 2 127 0 0.589020607740618
"928" 2 1 2 128 1 1.53335432049795
"929" 2 1 2 129 1 1.55221272874461
"930" 2 1 2 130 1 2.29108877968555
"931" 2 1 2 131 0 0.49381364525808
"932" 2 1 2 132 1 0.489586315162946
"933" 2 1 2 133 1 0.300436370603042
"934" 2 1 2 134 1 0.432861770994263
"935" 2 1 2 135 1 0.379414186181733
"936" 2 1 2 136 1 0.90421687916969
"937" 2 1 2 137 1 0.756086348486831
"938" 2 1 2 138 1 0.514134149574908
"939" 2 1 2 139 1 0.896145009999629
"940" 2 1 2 140 1 1.82589381087571
"941" 2 1 2 141 1 1.23443315106118
"942" 2 1 2 142 1 1.21626978808292
"943" 2 1 2 143 1 1.63616690226528
"944" 2 1 2 144 1 1.18936699616234
"945" 2 1 2 145 1 0.475522061470663
"946" 2 1 2 146 0 0.250136031747097
"947" 2 1 2 147 0 4.77998817859986
"948" 2 1 2 148 1 4.18434018529044
"949" 2 1 2 149 1 1.48117563757976
"950" 2 1 2 150 1 0.709191804992268
"951" 2 1 2 151 1 1.57207015907741
"952" 2 1 2 152 1 1.08249771259795
"953" 2 1 2 153 0 1.02603520410392
"954" 2 1 2 154 1 0.52011224546493
"955" 2 1 2 155 1 0.590453345941613
"956" 2 1 2 156 1 2.40003225183161
"957" 2 1 2 157 0 2.11932762800809
"958" 2 1 2 158 1 1.02328099805419
"959" 2 1 2 159 0 1.2810800508426
"960" 2 1 2 160 1 0.315752627122449
"961" 2 1 2 161 0 0.934920462605311
"962" 2 1 2 162 1 3.73342566181114
"963" 2 1 2 163 1 0.504277744448511
"964" 2 1 2 164 1 0.757404270558851
"965" 2 1 2 165 1 0.397134721319191
"966" 2 1 2 166 0 0.835706390687032
"967" 2 1 2 167 1 0.759038421373116
"968" 2 1 2 168 1 1.14408368233964
"969" 2 1 2 169 0 0.932694711179705
"970" 2 1 2 170 1 0.754157496470492
"971" 2 1 2 171 1 0.840494855886325
"972" 2 1 2 172 1 2.80517740542884
"973" 2 1 2 173 1 0.598008076689672
"974" 2 1 2 174 1 1.90396479847748
"975" 2 1 2 175 1 2.14313153786655
"976" 2 1 2 176 1 0.715465001694858
"977" 2 1 2 177 1 6.2041835656371
"978" 2 1 2 178 1 1.33237113130977
"979" 2 1 2 179 1 0.989042526513571
"980" 2 1 2 180 1 0.954581562418956
"981" 2 1 2 181 1 0.913483056811616
"982" 2 1 2 182 1 0.65552347096242
"983" 2 1 2 183 1 4.13941342523228
"984" 2 1 2 184 0 0.273978810327826
"985" 2 1 2 185 1 0.429942455587443
"986" 2 1 2 186 0 0.3592445136467
"987" 2 1 2 187 1 1.57005980047444
"988" 2 1 2 188 1 0.809433640141971
"989" 2 1 2 189 1 2.23676265481603
"990" 2 1 2 190 1 0.748871224033413
"991" 2 1 2 191 0 1.13493400914269
"992" 2 1 2 192 1 0.998811565428972
"993" 2 1 2 193 1 2.82914876427315
"994" 2 1 2 194 1 0.582713341105729
"995" 2 1 2 195 0 2.44141328720679
"996" 2 1 2 196 1 1.37056470666057
"997" 2 1 2 197 0 0.295485468648607
"998" 2 1 2 198 0 0.410680081132334
"999" 2 1 2 199 1 0.90655757288821
"1000" 2 1 2 200 0 0.633989721642574
"1001" 2 1 3 1 1 0.619796036915854
"1002" 2 1 3 2 1 1.36824842520035
"1003" 2 1 3 3 1 0.332658474122873
"1004" 2 1 3 4 1 1.34325910914573
"1005" 2 1 3 5 1 0.974622632961022
"1006" 2 1 3 6 1 0.577323144936701
"1007" 2 1 3 7 1 0.870376800214872
"1008" 2 1 3 8 1 0.63968383881799
"1009" 2 1 3 9 1 1.48433593779523
"1010" 2 1 3 10 1 0.832774418061832
"1011" 2 1 3 11 0 0.444274914964568
"1012" 2 1 3 12 1 0.811362454896793
"1013" 2 1 3 13 1 3.04964187984588
"1014" 2 1 3 14 1 0.818245517014293
"1015" 2 1 3 15 1 0.591171618683729
"1016" 2 1 3 16 1 0.822807936777361
"1017" 2 1 3 17 1 0.650764226481318
"1018" 2 1 3 18 1 0.490067437002901
"1019" 2 1 3 19 1 0.364008485033643
"1020" 2 1 3 20 1 0.289079891193425
"1021" 2 1 3 21 1 0.431714312403696
"1022" 2 1 3 22 1 0.445914903529221
"1023" 2 1 3 23 1 0.533621483830269
"1024" 2 1 3 24 1 0.459865270527778
"1025" 2 1 3 25 1 0.372495664578863
"1026" 2 1 3 26 1 0.65264233175409
"1027" 2 1 3 27 1 1.04493639056361
"1028" 2 1 3 28 1 0.495764438566519
"1029" 2 1 3 29 1 0.313690955810249
"1030" 2 1 3 30 1 0.518019556110259
"1031" 2 1 3 31 1 0.793159739790484
"1032" 2 1 3 32 1 1.30649258035421
"1033" 2 1 3 33 1 0.657249494047137
"1034" 2 1 3 34 1 0.485688548868988
"1035" 2 1 3 35 1 1.09891086823959
"1036" 2 1 3 36 1 0.401615503275301
"1037" 2 1 3 37 0 0.401646637178026
"1038" 2 1 3 38 1 0.726076163385296
"1039" 2 1 3 39 1 0.830156593053602
"1040" 2 1 3 40 1 0.463344263646984
"1041" 2 1 3 41 1 0.717072420261335
"1042" 2 1 3 42 1 0.511051096372074
"1043" 2 1 3 43 1 0.584174605535576
"1044" 2 1 3 44 1 1.24583367649303
"1045" 2 1 3 45 1 1.15683374542627
"1046" 2 1 3 46 1 0.410370769276517
"1047" 2 1 3 47 1 0.445651114160661
"1048" 2 1 3 48 1 0.478202189787291
"1049" 2 1 3 49 1 1.11543108826829
"1050" 2 1 3 50 1 1.08278957019467
"1051" 2 1 3 51 1 0.380844327667728
"1052" 2 1 3 52 1 1.0692763950543
"1053" 2 1 3 53 1 0.566217470210744
"1054" 2 1 3 54 1 0.960925545374164
"1055" 2 1 3 55 1 0.659322332483716
"1056" 2 1 3 56 1 0.549794537827605
"1057" 2 1 3 57 1 2.18149470891291
"1058" 2 1 3 58 1 0.683627711014822
"1059" 2 1 3 59 1 0.621852120502852
"1060" 2 1 3 60 1 0.581751403382048
"1061" 2 1 3 61 1 1.20982893233444
"1062" 2 1 3 62 1 0.518627657977399
"1063" 2 1 3 63 1 0.554226470620837
"1064" 2 1 3 64 1 0.453514508885332
"1065" 2 1 3 65 1 1.02467016734346
"1066" 2 1 3 66 1 0.467273299822584
"1067" 2 1 3 67 1 1.28409793443326
"1068" 2 1 3 68 1 1.00086175064393
"1069" 2 1 3 69 1 1.38037228153483
"1070" 2 1 3 70 1 0.363220457550604
"1071" 2 1 3 71 1 0.830628161410335
"1072" 2 1 3 72 1 0.537515712757595
"1073" 2 1 3 73 1 0.839911537386943
"1074" 2 1 3 74 1 0.958000889478251
"1075" 2 1 3 75 1 0.590569642494433
"1076" 2 1 3 76 1 0.83914567933185
"1077" 2 1 3 77 1 1.33610819727415
"1078" 2 1 3 78 1 0.597635419844184
"1079" 2 1 3 79 1 1.06273771889228
"1080" 2 1 3 80 1 1.00596597126569
"1081" 2 1 3 81 1 0.497324347933522
"1082" 2 1 3 82 1 0.274281348546734
"1083" 2 1 3 83 1 1.30454564870452
"1084" 2 1 3 84 1 0.724083405297948
"1085" 2 1 3 85 1 0.557297161951195
"1086" 2 1 3 86 1 0.579059239452938
"1087" 2 1 3 87 1 0.869407107550418
"1088" 2 1 3 88 1 1.28020082768053
"1089" 2 1 3 89 1 0.345537797997706
"1090" 2 1 3 90 1 0.650945347463247
"1091" 2 1 3 91 1 1.80753991829348
"1092" 2 1 3 92 1 0.726843208383303
"1093" 2 1 3 93 1 0.636231864728266
"1094" 2 1 3 94 1 0.597418274518568
"1095" 2 1 3 95 1 0.472949914050289
"1096" 2 1 3 96 1 0.552499986659503
"1097" 2 1 3 97 1 0.701643326959573
"1098" 2 1 3 98 1 1.10737335995981
"1099" 2 1 3 99 1 0.407543312161462
"1100" 2 1 3 100 1 0.363626694000093
"1101" 2 1 3 101 1 0.486681726893876
"1102" 2 1 3 102 1 0.354576451826841
"1103" 2 1 3 103 1 0.615863876667805
"1104" 2 1 3 104 1 0.436727909276262
"1105" 2 1 3 105 1 1.10372724941606
"1106" 2 1 3 106 1 0.645750477758702
"1107" 2 1 3 107 1 0.798108597916784
"1108" 2 1 3 108 1 0.545871857580729
"1109" 2 1 3 109 1 0.415196455108933
"1110" 2 1 3 110 1 1.06010424291599
"1111" 2 1 3 111 1 0.800829142320436
"1112" 2 1 3 112 0 0.546066178606823
"1113" 2 1 3 113 1 2.38571932632569
"1114" 2 1 3 114 1 1.7203081261008
"1115" 2 1 3 115 1 0.48509605191811
"1116" 2 1 3 116 1 1.01632132116659
"1117" 2 1 3 117 1 1.92987441792851
"1118" 2 1 3 118 1 0.437028264774708
"1119" 2 1 3 119 1 1.08481051237509
"1120" 2 1 3 120 1 0.821088351470884
"1121" 2 1 3 121 1 0.835009603769984
"1122" 2 1 3 122 1 0.470671828251332
"1123" 2 1 3 123 1 0.548055148650194
"1124" 2 1 3 124 1 1.09907430598931
"1125" 2 1 3 125 1 0.423365689189639
"1126" 2 1 3 126 1 0.963989785482641
"1127" 2 1 3 127 1 2.12694269453036
"1128" 2 1 3 128 1 0.389908567304257
"1129" 2 1 3 129 1 0.499401484378614
"1130" 2 1 3 130 1 0.624263701327145
"1131" 2 1 3 131 1 2.07363175274618
"1132" 2 1 3 132 1 1.01729522822332
"1133" 2 1 3 133 1 0.610099449885078
"1134" 2 1 3 134 1 0.626733808137011
"1135" 2 1 3 135 1 1.19819282691344
"1136" 2 1 3 136 1 0.355863782779546
"1137" 2 1 3 137 1 1.35121777895605
"1138" 2 1 3 138 1 0.533819312691223
"1139" 2 1 3 139 1 0.95709362247237
"1140" 2 1 3 140 1 0.85932728635869
"1141" 2 1 3 141 1 0.81003198757302
"1142" 2 1 3 142 1 0.561393208652502
"1143" 2 1 3 143 1 0.481385686716065
"1144" 2 1 3 144 1 0.302311864494346
"1145" 2 1 3 145 1 0.86520089158183
"1146" 2 1 3 146 1 0.962191787098069
"1147" 2 1 3 147 1 0.790159089210676
"1148" 2 1 3 148 1 0.419312983520795
"1149" 2 1 3 149 1 1.11583205163036
"1150" 2 1 3 150 1 0.645667955438606
"1151" 2 1 3 151 1 0.796625809966121
"1152" 2 1 3 152 1 0.452736915855203
"1153" 2 1 3 153 1 0.478330429751659
"1154" 2 1 3 154 1 1.15831515907054
"1155" 2 1 3 155 1 0.635473035569303
"1156" 2 1 3 156 1 0.448947883344255
"1157" 2 1 3 157 1 0.779493918747641
"1158" 2 1 3 158 1 0.63786737780855
"1159" 2 1 3 159 1 0.421743334133877
"1160" 2 1 3 160 1 1.64747262214334
"1161" 2 1 3 161 1 0.740672004852677
"1162" 2 1 3 162 1 0.398024501539534
"1163" 2 1 3 163 1 0.442646473784
"1164" 2 1 3 164 1 0.430364128062734
"1165" 2 1 3 165 1 0.385110747005092
"1166" 2 1 3 166 1 0.308126914315391
"1167" 2 1 3 167 1 1.13521857107221
"1168" 2 1 3 168 1 0.721627249935176
"1169" 2 1 3 169 1 0.506216399310157
"1170" 2 1 3 170 1 1.32221621050267
"1171" 2 1 3 171 0 1.36251498226705
"1172" 2 1 3 172 1 0.381558230799623
"1173" 2 1 3 173 1 0.359945279966807
"1174" 2 1 3 174 1 0.862036981167505
"1175" 2 1 3 175 1 0.462494011570467
"1176" 2 1 3 176 1 0.608814730149461
"1177" 2 1 3 177 1 0.984078154092189
"1178" 2 1 3 178 1 1.38372196661844
"1179" 2 1 3 179 1 0.537234204778913
"1180" 2 1 3 180 1 0.612622157183476
"1181" 2 1 3 181 1 0.485360211094609
"1182" 2 1 3 182 1 0.693165174728027
"1183" 2 1 3 183 1 0.715743822605349
"1184" 2 1 3 184 1 0.79801463264809
"1185" 2 1 3 185 1 0.507870980146341
"1186" 2 1 3 186 1 0.332053041987354
"1187" 2 1 3 187 1 0.501875884474022
"1188" 2 1 3 188 1 0.899222937045386
"1189" 2 1 3 189 1 2.08021288873279
"1190" 2 1 3 190 1 0.432767305896385
"1191" 2 1 3 191 1 0.765634806583403
"1192" 2 1 3 192 1 1.06730953520304
"1193" 2 1 3 193 1 0.468075574323069
"1194" 2 1 3 194 1 0.768249268634012
"1195" 2 1 3 195 1 0.510874880981166
"1196" 2 1 3 196 1 1.04180623766617
"1197" 2 1 3 197 1 0.568533284626668
"1198" 2 1 3 198 1 1.81717220419087
"1199" 2 1 3 199 1 1.48670567588601
"1200" 2 1 3 200 1 0.395396692190319
"1201" 3 1 1 1 1 0.764117406534264
"1202" 3 1 1 2 1 0.911372843450867
"1203" 3 1 1 3 0 0.676026136140106
"1204" 3 1 1 4 0 0.924662552120863
"1205" 3 1 1 5 0 0.715414844188141
"1206" 3 1 1 6 1 0.694223540082108
"1207" 3 1 1 7 0 0.90499711555359
"1208" 3 1 1 8 0 1.17506640033121
"1209" 3 1 1 9 0 1.6430413704596
"1210" 3 1 1 10 0 0.679351441174746
"1211" 3 1 1 11 1 1.09990660533099
"1212" 3 1 1 12 1 2.34325555763347
"1213" 3 1 1 13 1 0.728519735928858
"1214" 3 1 1 14 1 1.03878436852782
"1215" 3 1 1 15 1 0.785176130483858
"1216" 3 1 1 16 0 1.71519744637259
"1217" 3 1 1 17 0 1.7587522635269
"1218" 3 1 1 18 1 0.757342500488274
"1219" 3 1 1 19 0 1.38664520532032
"1220" 3 1 1 20 1 0.472545106386766
"1221" 3 1 1 21 1 0.801807225649012
"1222" 3 1 1 22 0 0.526504470039159
"1223" 3 1 1 23 1 1.10664575727237
"1224" 3 1 1 24 0 0.729653941256926
"1225" 3 1 1 25 1 0.988787167959381
"1226" 3 1 1 26 0 1.32339468998555
"1227" 3 1 1 27 0 1.05386396428873
"1228" 3 1 1 28 0 0.44832364930422
"1229" 3 1 1 29 0 1.0557279377298
"1230" 3 1 1 30 1 0.719247807177017
"1231" 3 1 1 31 1 0.582197840755107
"1232" 3 1 1 32 0 1.81647980180802
"1233" 3 1 1 33 1 0.566793994000647
"1234" 3 1 1 34 1 1.73655160188419
"1235" 3 1 1 35 1 1.75100028464175
"1236" 3 1 1 36 1 0.69619160058978
"1237" 3 1 1 37 0 0.619409169693245
"1238" 3 1 1 38 1 0.693146969317226
"1239" 3 1 1 39 0 0.485773339335807
"1240" 3 1 1 40 1 0.623623495108681
"1241" 3 1 1 41 1 2.30546466675773
"1242" 3 1 1 42 1 0.747977118890733
"1243" 3 1 1 43 1 0.761820835809456
"1244" 3 1 1 44 1 1.45289215089846
"1245" 3 1 1 45 1 1.99450250466657
"1246" 3 1 1 46 1 1.49840372769116
"1247" 3 1 1 47 1 0.90310820197477
"1248" 3 1 1 48 1 0.869920996531379
"1249" 3 1 1 49 0 0.858346907960251
"1250" 3 1 1 50 0 0.475923648332479
"1251" 3 1 1 51 1 0.747546136316378
"1252" 3 1 1 52 0 1.74150708654616
"1253" 3 1 1 53 0 0.492538431021618
"1254" 3 1 1 54 0 1.78605390449963
"1255" 3 1 1 55 1 0.773971469795331
"1256" 3 1 1 56 1 1.60325913708867
"1257" 3 1 1 57 1 0.618381646366091
"1258" 3 1 1 58 1 0.593947292209836
"1259" 3 1 1 59 0 1.45164493799605
"1260" 3 1 1 60 1 0.498703119978076
"1261" 3 1 1 61 1 0.477796735795913
"1262" 3 1 1 62 0 0.515175093374681
"1263" 3 1 1 63 0 1.08477023833222
"1264" 3 1 1 64 1 1.79617347158794
"1265" 3 1 1 65 0 0.974512877947418
"1266" 3 1 1 66 0 1.58165788490023
"1267" 3 1 1 67 1 2.02026308171963
"1268" 3 1 1 68 1 0.603519294686383
"1269" 3 1 1 69 0 0.802435248986352
"1270" 3 1 1 70 1 1.25790821168176
"1271" 3 1 1 71 1 0.417911230904516
"1272" 3 1 1 72 0 1.87761311259004
"1273" 3 1 1 73 0 0.43839481977839
"1274" 3 1 1 74 1 0.574354287583847
"1275" 3 1 1 75 1 1.62181936724321
"1276" 3 1 1 76 1 0.434603829864413
"1277" 3 1 1 77 0 0.709501814516028
"1278" 3 1 1 78 1 2.20898914046236
"1279" 3 1 1 79 1 0.634701019776054
"1280" 3 1 1 80 1 1.033008277399
"1281" 3 1 1 81 0 1.12654713762389
"1282" 3 1 1 82 1 1.74618846433703
"1283" 3 1 1 83 1 0.87675218051672
"1284" 3 1 1 84 1 2.40549601172726
"1285" 3 1 1 85 1 1.00503832265502
"1286" 3 1 1 86 1 0.743352788768709
"1287" 3 1 1 87 1 0.700832492677728
"1288" 3 1 1 88 1 0.788405885093613
"1289" 3 1 1 89 0 0.509124639401445
"1290" 3 1 1 90 1 0.565148408005247
"1291" 3 1 1 91 1 0.379271772434236
"1292" 3 1 1 92 1 0.61846972343605
"1293" 3 1 1 93 1 1.03000949622621
"1294" 3 1 1 94 1 0.531544332579244
"1295" 3 1 1 95 1 2.53937787754228
"1296" 3 1 1 96 0 0.546553445754107
"1297" 3 1 1 97 1 0.856967126663541
"1298" 3 1 1 98 1 0.730309217671631
"1299" 3 1 1 99 1 1.88841531362291
"1300" 3 1 1 100 1 0.871897151286947
"1301" 3 1 1 101 1 0.935329555860022
"1302" 3 1 1 102 0 0.542224975429475
"1303" 3 1 1 103 1 0.750903054314666
"1304" 3 1 1 104 0 0.604207756351214
"1305" 3 1 1 105 0 1.43209998426074
"1306" 3 1 1 106 1 0.932277031324338
"1307" 3 1 1 107 0 1.1017931204061
"1308" 3 1 1 108 0 1.73947676018137
"1309" 3 1 1 109 1 1.5908388170104
"1310" 3 1 1 110 0 1.0503964101274
"1311" 3 1 1 111 0 0.644253584573977
"1312" 3 1 1 112 1 0.78801295284438
"1313" 3 1 1 113 1 0.794741359273205
"1314" 3 1 1 114 1 0.532563980716979
"1315" 3 1 1 115 1 1.33813544656266
"1316" 3 1 1 116 0 0.537683753586141
"1317" 3 1 1 117 0 0.41935720436112
"1318" 3 1 1 118 1 0.981200677182758
"1319" 3 1 1 119 0 1.65362260670261
"1320" 3 1 1 120 1 0.390072187375277
"1321" 3 1 1 121 1 1.04559700396913
"1322" 3 1 1 122 1 1.06105336302961
"1323" 3 1 1 123 0 0.56467197900312
"1324" 3 1 1 124 0 1.07729791176063
"1325" 3 1 1 125 0 1.29039032803965
"1326" 3 1 1 126 0 0.524767719761236
"1327" 3 1 1 127 1 0.574840262222802
"1328" 3 1 1 128 1 0.45226852370752
"1329" 3 1 1 129 1 0.675383342726156
"1330" 3 1 1 130 0 0.424732360658236
"1331" 3 1 1 131 1 0.554173141908366
"1332" 3 1 1 132 0 1.69609805730986
"1333" 3 1 1 133 0 1.61110496086441
"1334" 3 1 1 134 0 0.573124321066076
"1335" 3 1 1 135 1 0.762538026589435
"1336" 3 1 1 136 1 0.763605688154697
"1337" 3 1 1 137 0 0.846225824605906
"1338" 3 1 1 138 0 0.370344131116057
"1339" 3 1 1 139 0 1.0065456910904
"1340" 3 1 1 140 0 0.757495511798421
"1341" 3 1 1 141 1 0.345592186256079
"1342" 3 1 1 142 0 0.873582685708767
"1343" 3 1 1 143 1 0.930831476285821
"1344" 3 1 1 144 0 0.51723361950391
"1345" 3 1 1 145 0 2.43681082981755
"1346" 3 1 1 146 0 2.63617734416435
"1347" 3 1 1 147 1 0.91545377248968
"1348" 3 1 1 148 1 1.02400698663946
"1349" 3 1 1 149 1 1.0944315832553
"1350" 3 1 1 150 1 1.49288452991354
"1351" 3 1 1 151 1 2.93149865745171
"1352" 3 1 1 152 0 0.969545441504102
"1353" 3 1 1 153 0 0.938905022072606
"1354" 3 1 1 154 1 1.39412930025766
"1355" 3 1 1 155 1 0.37514378351951
"1356" 3 1 1 156 1 1.0089673324211
"1357" 3 1 1 157 1 0.936343019789551
"1358" 3 1 1 158 0 0.52079039449431
"1359" 3 1 1 159 1 2.07149071695935
"1360" 3 1 1 160 1 0.416425084333168
"1361" 3 1 1 161 0 0.449670212300261
"1362" 3 1 1 162 1 0.438831389933359
"1363" 3 1 1 163 1 0.549699840278598
"1364" 3 1 1 164 0 1.92394550684467
"1365" 3 1 1 165 0 0.596962051992305
"1366" 3 1 1 166 1 1.29629700660845
"1367" 3 1 1 167 1 0.486920552100288
"1368" 3 1 1 168 1 3.11788664179086
"1369" 3 1 1 169 1 0.661307356279111
"1370" 3 1 1 170 0 0.478866678097053
"1371" 3 1 1 171 1 0.416883684133412
"1372" 3 1 1 172 1 0.48014475981798
"1373" 3 1 1 173 0 1.86768937347457
"1374" 3 1 1 174 1 2.39706176065165
"1375" 3 1 1 175 0 0.493322078635916
"1376" 3 1 1 176 1 1.3574675714625
"1377" 3 1 1 177 0 1.23802867463767
"1378" 3 1 1 178 1 0.55735843224451
"1379" 3 1 1 179 1 0.97687624120363
"1380" 3 1 1 180 1 1.89349334430322
"1381" 3 1 1 181 1 0.975346935038222
"1382" 3 1 1 182 1 0.778482728120172
"1383" 3 1 1 183 1 0.658694065362914
"1384" 3 1 1 184 1 0.786902643262642
"1385" 3 1 1 185 0 0.994161261203699
"1386" 3 1 1 186 0 1.22867009215127
"1387" 3 1 1 187 0 0.975490114761516
"1388" 3 1 1 188 1 0.5355801984563
"1389" 3 1 1 189 0 0.722585173953325
"1390" 3 1 1 190 0 0.549483947535744
"1391" 3 1 1 191 1 2.1230936796146
"1392" 3 1 1 192 1 1.84141173143219
"1393" 3 1 1 193 1 1.20066335206176
"1394" 3 1 1 194 1 1.31220143399853
"1395" 3 1 1 195 1 0.720079279486789
"1396" 3 1 1 196 0 2.21873596535367
"1397" 3 1 1 197 1 1.46584312488721
"1398" 3 1 1 198 1 0.509178383193212
"1399" 3 1 1 199 1 2.12937552098767
"1400" 3 1 1 200 1 0.928224769813474
"1401" 3 1 2 1 0 0.296096394238761
"1402" 3 1 2 2 0 0.315022610672517
"1403" 3 1 2 3 0 0.40094468773203
"1404" 3 1 2 4 0 0.989485336916288
"1405" 3 1 2 5 0 0.727749193503289
"1406" 3 1 2 6 1 0.691178043030435
"1407" 3 1 2 7 0 0.5087012406094
"1408" 3 1 2 8 1 0.416565546671161
"1409" 3 1 2 9 1 0.290380242210347
"1410" 3 1 2 10 0 0.662706623456208
"1411" 3 1 2 11 0 0.426640190855367
"1412" 3 1 2 12 0 0.370746011691866
"1413" 3 1 2 13 1 0.56713628910901
"1414" 3 1 2 14 0 0.491072562800255
"1415" 3 1 2 15 1 0.406462799678091
"1416" 3 1 2 16 0 0.388872651124839
"1417" 3 1 2 17 0 0.590280711583793
"1418" 3 1 2 18 1 0.37926580617018
"1419" 3 1 2 19 1 0.694014147945214
"1420" 3 1 2 20 1 0.522739608611213
"1421" 3 1 2 21 0 0.405101021846058
"1422" 3 1 2 22 1 0.648012377546867
"1423" 3 1 2 23 1 0.329889651205856
"1424" 3 1 2 24 1 0.450968373007607
"1425" 3 1 2 25 0 0.458586407115683
"1426" 3 1 2 26 0 0.396955052436795
"1427" 3 1 2 27 0 0.45550036583771
"1428" 3 1 2 28 0 0.431741200305754
"1429" 3 1 2 29 0 0.523168775382219
"1430" 3 1 2 30 1 0.339659945762949
"1431" 3 1 2 31 1 0.335925872153137
"1432" 3 1 2 32 0 0.470977462180192
"1433" 3 1 2 33 0 0.28157285827864
"1434" 3 1 2 34 0 0.557309890331235
"1435" 3 1 2 35 1 0.367303459589137
"1436" 3 1 2 36 0 0.284326946150046
"1437" 3 1 2 37 1 0.269220796252135
"1438" 3 1 2 38 0 0.327614504244179
"1439" 3 1 2 39 0 0.55078898410406
"1440" 3 1 2 40 0 0.388353281296557
"1441" 3 1 2 41 1 0.611311992115807
"1442" 3 1 2 42 1 0.573138641351834
"1443" 3 1 2 43 0 0.450835698847193
"1444" 3 1 2 44 0 0.96714309299388
"1445" 3 1 2 45 0 0.497196522308281
"1446" 3 1 2 46 1 0.382303867189912
"1447" 3 1 2 47 1 0.333496449944098
"1448" 3 1 2 48 0 0.379958240750944
"1449" 3 1 2 49 0 0.280784446662758
"1450" 3 1 2 50 0 0.511528494951082
"1451" 3 1 2 51 1 0.42287972174678
"1452" 3 1 2 52 0 0.44237942348537
"1453" 3 1 2 53 1 0.30061886096606
"1454" 3 1 2 54 1 0.530862128912704
"1455" 3 1 2 55 1 0.445943979414878
"1456" 3 1 2 56 0 0.705514543445082
"1457" 3 1 2 57 0 0.332954421595205
"1458" 3 1 2 58 0 0.38748323751986
"1459" 3 1 2 59 0 0.39544105990883
"1460" 3 1 2 60 1 0.341162784356624
"1461" 3 1 2 61 0 0.308398248904385
"1462" 3 1 2 62 0 0.353068073567469
"1463" 3 1 2 63 1 0.517730230060406
"1464" 3 1 2 64 1 0.279480293350294
"1465" 3 1 2 65 1 0.287952400770038
"1466" 3 1 2 66 1 0.451478850928135
"1467" 3 1 2 67 1 0.332752741418779
"1468" 3 1 2 68 0 0.779622611911967
"1469" 3 1 2 69 1 0.338095254745567
"1470" 3 1 2 70 1 0.45528447009949
"1471" 3 1 2 71 1 0.505620520025957
"1472" 3 1 2 72 0 0.397093522870913
"1473" 3 1 2 73 1 0.436390037888894
"1474" 3 1 2 74 0 0.305154947362142
"1475" 3 1 2 75 0 0.267639209931018
"1476" 3 1 2 76 0 0.517272261281731
"1477" 3 1 2 77 1 0.399173105959315
"1478" 3 1 2 78 0 0.293585838918109
"1479" 3 1 2 79 1 0.278650961629115
"1480" 3 1 2 80 0 0.376939619017765
"1481" 3 1 2 81 1 0.327147257690784
"1482" 3 1 2 82 0 0.343759758563712
"1483" 3 1 2 83 0 0.594965014125919
"1484" 3 1 2 84 0 0.372576682719868
"1485" 3 1 2 85 1 0.300841145592276
"1486" 3 1 2 86 1 0.384307725015096
"1487" 3 1 2 87 0 0.376113301909762
"1488" 3 1 2 88 0 0.605117106505437
"1489" 3 1 2 89 1 0.423622425102629
"1490" 3 1 2 90 1 0.887671517738374
"1491" 3 1 2 91 0 0.504257949892432
"1492" 3 1 2 92 0 0.32750639567594
"1493" 3 1 2 93 0 0.278756462939316
"1494" 3 1 2 94 0 0.303039693367435
"1495" 3 1 2 95 0 0.30736063832324
"1496" 3 1 2 96 0 0.592675197604345
"1497" 3 1 2 97 0 0.54020443561906
"1498" 3 1 2 98 1 0.488936420451151
"1499" 3 1 2 99 0 1.06419914528611
"1500" 3 1 2 100 0 0.357940254912712
"1501" 3 1 2 101 0 0.445001892329194
"1502" 3 1 2 102 1 0.424712741513969
"1503" 3 1 2 103 0 0.424307328414638
"1504" 3 1 2 104 0 0.757733795748092
"1505" 3 1 2 105 1 0.330149633482099
"1506" 3 1 2 106 0 0.319627810098929
"1507" 3 1 2 107 1 0.881714734255569
"1508" 3 1 2 108 0 0.512157252582023
"1509" 3 1 2 109 0 0.357105843374971
"1510" 3 1 2 110 1 0.299961978563573
"1511" 3 1 2 111 1 0.279135094414931
"1512" 3 1 2 112 1 0.338071972189937
"1513" 3 1 2 113 0 0.909705654980615
"1514" 3 1 2 114 1 0.41763931192318
"1515" 3 1 2 115 0 0.457046898493776
"1516" 3 1 2 116 0 0.401542208267143
"1517" 3 1 2 117 0 0.417994546122616
"1518" 3 1 2 118 1 0.452520720714936
"1519" 3 1 2 119 0 0.378412286908831
"1520" 3 1 2 120 1 0.456548662066925
"1521" 3 1 2 121 1 0.400493921313668
"1522" 3 1 2 122 0 0.432825474993559
"1523" 3 1 2 123 1 0.383402830724837
"1524" 3 1 2 124 0 0.347693418723764
"1525" 3 1 2 125 0 0.816714710155036
"1526" 3 1 2 126 0 0.277199898387771
"1527" 3 1 2 127 1 0.409288795241388
"1528" 3 1 2 128 0 0.499276270030765
"1529" 3 1 2 129 0 0.542958102335688
"1530" 3 1 2 130 0 0.360658972771373
"1531" 3 1 2 131 1 0.408389115003636
"1532" 3 1 2 132 0 0.394211506717373
"1533" 3 1 2 133 0 0.335510074875318
"1534" 3 1 2 134 0 0.759029669646407
"1535" 3 1 2 135 1 0.285013560836436
"1536" 3 1 2 136 0 0.504880894694012
"1537" 3 1 2 137 1 0.271671041616471
"1538" 3 1 2 138 0 0.583857508870075
"1539" 3 1 2 139 0 0.344449485006277
"1540" 3 1 2 140 1 0.315994566770038
"1541" 3 1 2 141 1 0.299947982307058
"1542" 3 1 2 142 0 0.42058331963839
"1543" 3 1 2 143 0 1.16772291734349
"1544" 3 1 2 144 0 0.574964637595927
"1545" 3 1 2 145 0 0.481718939733459
"1546" 3 1 2 146 0 0.376120475694072
"1547" 3 1 2 147 0 0.875406459680991
"1548" 3 1 2 148 1 0.317182869737037
"1549" 3 1 2 149 0 0.279243907770608
"1550" 3 1 2 150 0 0.592428100645076
"1551" 3 1 2 151 0 0.269162020002026
"1552" 3 1 2 152 1 0.410058866217267
"1553" 3 1 2 153 1 0.399604874206474
"1554" 3 1 2 154 1 0.707940544408979
"1555" 3 1 2 155 1 0.77682576297177
"1556" 3 1 2 156 0 0.457833577748621
"1557" 3 1 2 157 1 0.708708755158354
"1558" 3 1 2 158 0 0.60910170451412
"1559" 3 1 2 159 1 0.795740699270275
"1560" 3 1 2 160 0 0.314682794928318
"1561" 3 1 2 161 0 0.545988487171242
"1562" 3 1 2 162 0 0.286758735437645
"1563" 3 1 2 163 0 0.313882972834399
"1564" 3 1 2 164 0 0.347707897332264
"1565" 3 1 2 165 0 0.386238418313209
"1566" 3 1 2 166 0 0.481890882618027
"1567" 3 1 2 167 0 0.382432913977653
"1568" 3 1 2 168 0 0.374881491123699
"1569" 3 1 2 169 0 0.347981604821747
"1570" 3 1 2 170 1 0.395835432114312
"1571" 3 1 2 171 0 0.328856611643452
"1572" 3 1 2 172 0 0.664211225646781
"1573" 3 1 2 173 1 0.55688546150364
"1574" 3 1 2 174 1 0.541828712860588
"1575" 3 1 2 175 1 0.290333960517775
"1576" 3 1 2 176 0 0.718002034350298
"1577" 3 1 2 177 0 0.751854747590376
"1578" 3 1 2 178 0 0.457920083018718
"1579" 3 1 2 179 1 0.533067301515257
"1580" 3 1 2 180 1 0.465540522161406
"1581" 3 1 2 181 0 0.394685639897594
"1582" 3 1 2 182 0 0.410671893913532
"1583" 3 1 2 183 0 0.275741769228131
"1584" 3 1 2 184 0 0.540690103866626
"1585" 3 1 2 185 1 1.10037972813961
"1586" 3 1 2 186 0 0.456956891914364
"1587" 3 1 2 187 0 0.372722493879497
"1588" 3 1 2 188 0 0.365594386015553
"1589" 3 1 2 189 0 0.283868534742855
"1590" 3 1 2 190 1 0.465457717743004
"1591" 3 1 2 191 0 0.517034976711729
"1592" 3 1 2 192 1 0.399499870941974
"1593" 3 1 2 193 1 0.538754915999714
"1594" 3 1 2 194 0 0.363943658652948
"1595" 3 1 2 195 1 0.393280847857241
"1596" 3 1 2 196 0 0.375233528267359
"1597" 3 1 2 197 0 0.326530530327
"1598" 3 1 2 198 1 0.936178963884478
"1599" 3 1 2 199 1 0.309747228431283
"1600" 3 1 2 200 1 0.369905404762598
"1601" 3 1 3 1 1 0.440169999536593
"1602" 3 1 3 2 1 0.647428969763452
"1603" 3 1 3 3 1 0.878168197145453
"1604" 3 1 3 4 1 0.486303160994547
"1605" 3 1 3 5 1 0.650297714694636
"1606" 3 1 3 6 1 0.633643826293759
"1607" 3 1 3 7 1 0.612524426436285
"1608" 3 1 3 8 1 0.593942486975808
"1609" 3 1 3 9 1 0.508913445261074
"1610" 3 1 3 10 1 0.64171325435699
"1611" 3 1 3 11 1 0.828864355538972
"1612" 3 1 3 12 1 0.504712696735049
"1613" 3 1 3 13 1 1.02349967222568
"1614" 3 1 3 14 1 0.511694296003319
"1615" 3 1 3 15 1 0.872068384281825
"1616" 3 1 3 16 1 0.937151329566492
"1617" 3 1 3 17 1 0.802161675177049
"1618" 3 1 3 18 1 0.683343254073523
"1619" 3 1 3 19 1 0.526947672050912
"1620" 3 1 3 20 1 0.671466654948192
"1621" 3 1 3 21 1 0.85562301848107
"1622" 3 1 3 22 1 0.492884453654755
"1623" 3 1 3 23 1 0.658957017315552
"1624" 3 1 3 24 1 1.01971273552277
"1625" 3 1 3 25 1 0.677722743291175
"1626" 3 1 3 26 1 0.610431560479337
"1627" 3 1 3 27 1 0.402627270230325
"1628" 3 1 3 28 1 0.471847523724428
"1629" 3 1 3 29 1 0.830572718336713
"1630" 3 1 3 30 1 0.595585417884169
"1631" 3 1 3 31 1 1.27702662077989
"1632" 3 1 3 32 1 1.47684851725656
"1633" 3 1 3 33 1 0.522303530443693
"1634" 3 1 3 34 1 0.919952875012765
"1635" 3 1 3 35 1 0.567362936501857
"1636" 3 1 3 36 1 0.551266263966681
"1637" 3 1 3 37 1 0.691590766525595
"1638" 3 1 3 38 1 0.916741984270513
"1639" 3 1 3 39 1 1.76700248568226
"1640" 3 1 3 40 1 0.653681707344251
"1641" 3 1 3 41 1 1.1229050208712
"1642" 3 1 3 42 1 0.874081889700377
"1643" 3 1 3 43 1 0.879450258017518
"1644" 3 1 3 44 1 1.43965660590678
"1645" 3 1 3 45 1 0.747703451913316
"1646" 3 1 3 46 1 0.873437112598214
"1647" 3 1 3 47 1 0.675142952207243
"1648" 3 1 3 48 1 0.609555798043963
"1649" 3 1 3 49 1 0.554150800319156
"1650" 3 1 3 50 1 0.564537617175607
"1651" 3 1 3 51 1 1.13489293574286
"1652" 3 1 3 52 1 0.926037267346866
"1653" 3 1 3 53 1 0.731611772799399
"1654" 3 1 3 54 1 0.585728338322369
"1655" 3 1 3 55 1 1.45753323415737
"1656" 3 1 3 56 1 0.74468754379754
"1657" 3 1 3 57 1 1.09907053054729
"1658" 3 1 3 58 1 0.350931371942163
"1659" 3 1 3 59 1 0.74188817348727
"1660" 3 1 3 60 1 1.18080315551325
"1661" 3 1 3 61 1 0.410606552124955
"1662" 3 1 3 62 1 1.42010029409081
"1663" 3 1 3 63 1 0.466097813093336
"1664" 3 1 3 64 1 0.562739107308909
"1665" 3 1 3 65 1 0.559510292846011
"1666" 3 1 3 66 1 0.71967390587437
"1667" 3 1 3 67 1 0.806132093586959
"1668" 3 1 3 68 1 1.40815985310194
"1669" 3 1 3 69 1 1.31872660252708
"1670" 3 1 3 70 0 0.816824724645354
"1671" 3 1 3 71 1 0.517556441952009
"1672" 3 1 3 72 1 0.35890884436341
"1673" 3 1 3 73 1 0.600692022785312
"1674" 3 1 3 74 1 1.28732249857788
"1675" 3 1 3 75 1 0.652298243732192
"1676" 3 1 3 76 1 0.950521082321648
"1677" 3 1 3 77 1 0.478533774534939
"1678" 3 1 3 78 1 0.596473001417704
"1679" 3 1 3 79 1 1.41372259510681
"1680" 3 1 3 80 1 1.37703931167675
"1681" 3 1 3 81 1 0.9732934411522
"1682" 3 1 3 82 1 0.537051854833961
"1683" 3 1 3 83 1 0.733432133330265
"1684" 3 1 3 84 1 0.51964299815055
"1685" 3 1 3 85 1 0.606958237073384
"1686" 3 1 3 86 1 0.763104768919991
"1687" 3 1 3 87 1 0.354094086369732
"1688" 3 1 3 88 1 0.689132691294188
"1689" 3 1 3 89 1 2.4774993640983
"1690" 3 1 3 90 1 1.03740926378244
"1691" 3 1 3 91 1 0.536568608629052
"1692" 3 1 3 92 1 0.622834905145923
"1693" 3 1 3 93 1 1.71548262694781
"1694" 3 1 3 94 1 1.8016075576311
"1695" 3 1 3 95 1 0.79024034839985
"1696" 3 1 3 96 1 0.915494717611466
"1697" 3 1 3 97 1 1.8484321300434
"1698" 3 1 3 98 1 0.817321717467858
"1699" 3 1 3 99 1 0.604863754090853
"1700" 3 1 3 100 1 0.546734146713978
"1701" 3 1 3 101 1 1.00409252047376
"1702" 3 1 3 102 1 1.07889765840489
"1703" 3 1 3 103 1 0.88148045898322
"1704" 3 1 3 104 1 0.887232993959449
"1705" 3 1 3 105 1 0.481097861831309
"1706" 3 1 3 106 1 0.756528560089646
"1707" 3 1 3 107 1 0.995482929983642
"1708" 3 1 3 108 1 0.419174707717029
"1709" 3 1 3 109 1 1.08791804471542
"1710" 3 1 3 110 1 0.7428114926985
"1711" 3 1 3 111 1 0.389842356649693
"1712" 3 1 3 112 1 0.74672116080625
"1713" 3 1 3 113 1 0.992313452639384
"1714" 3 1 3 114 1 0.34086303425068
"1715" 3 1 3 115 1 0.722669417175464
"1716" 3 1 3 116 1 0.519675307805417
"1717" 3 1 3 117 1 0.733420820027823
"1718" 3 1 3 118 1 0.955437200036598
"1719" 3 1 3 119 1 1.20786260356405
"1720" 3 1 3 120 1 1.04085845683608
"1721" 3 1 3 121 1 0.430130716553889
"1722" 3 1 3 122 1 0.813602769847726
"1723" 3 1 3 123 1 0.495103431904223
"1724" 3 1 3 124 1 0.698976508594118
"1725" 3 1 3 125 1 0.514479796920205
"1726" 3 1 3 126 1 0.39526687932224
"1727" 3 1 3 127 1 1.82780238831695
"1728" 3 1 3 128 1 0.437950552347116
"1729" 3 1 3 129 1 0.428372291982174
"1730" 3 1 3 130 1 0.736545811830554
"1731" 3 1 3 131 1 0.631970002312912
"1732" 3 1 3 132 1 0.466832161390223
"1733" 3 1 3 133 1 1.18512244054815
"1734" 3 1 3 134 1 1.17754432101198
"1735" 3 1 3 135 1 0.752566777864704
"1736" 3 1 3 136 1 1.59960410969728
"1737" 3 1 3 137 1 0.726762042667484
"1738" 3 1 3 138 1 0.926274673700333
"1739" 3 1 3 139 1 0.848357246341649
"1740" 3 1 3 140 1 0.815557481181808
"1741" 3 1 3 141 1 0.528354669376044
"1742" 3 1 3 142 1 0.709474832684733
"1743" 3 1 3 143 1 1.74083953880635
"1744" 3 1 3 144 1 0.557613705375698
"1745" 3 1 3 145 1 1.61811131244502
"1746" 3 1 3 146 1 0.826703098000726
"1747" 3 1 3 147 1 1.66943101293966
"1748" 3 1 3 148 1 0.796592022347264
"1749" 3 1 3 149 1 0.908108317087172
"1750" 3 1 3 150 1 2.63588524191198
"1751" 3 1 3 151 1 0.682896600299748
"1752" 3 1 3 152 1 1.00061617163522
"1753" 3 1 3 153 1 1.05335381101188
"1754" 3 1 3 154 1 0.644720243599499
"1755" 3 1 3 155 1 0.706300491635688
"1756" 3 1 3 156 1 0.363335898890626
"1757" 3 1 3 157 1 0.561446760670515
"1758" 3 1 3 158 1 0.690538125771098
"1759" 3 1 3 159 1 0.437759103998309
"1760" 3 1 3 160 1 0.791850806077011
"1761" 3 1 3 161 1 0.653271750269458
"1762" 3 1 3 162 1 0.758146369657246
"1763" 3 1 3 163 1 0.990845542106312
"1764" 3 1 3 164 1 0.881102838707389
"1765" 3 1 3 165 1 0.509666980481474
"1766" 3 1 3 166 1 0.657314430844272
"1767" 3 1 3 167 1 0.566753990704194
"1768" 3 1 3 168 1 0.596364959167084
"1769" 3 1 3 169 1 0.840256859410089
"1770" 3 1 3 170 1 0.984779789838241
"1771" 3 1 3 171 1 0.840907085567946
"1772" 3 1 3 172 1 1.08269151044311
"1773" 3 1 3 173 1 0.968823870962718
"1774" 3 1 3 174 1 0.497609743132722
"1775" 3 1 3 175 1 0.962871452403953
"1776" 3 1 3 176 1 0.496052385757677
"1777" 3 1 3 177 1 0.668684351830278
"1778" 3 1 3 178 1 0.935872152503347
"1779" 3 1 3 179 1 0.621313913557679
"1780" 3 1 3 180 1 1.4871240025945
"1781" 3 1 3 181 1 0.982274023352191
"1782" 3 1 3 182 1 0.631810791477095
"1783" 3 1 3 183 1 0.536024927616818
"1784" 3 1 3 184 1 1.25946631838847
"1785" 3 1 3 185 1 0.578465845756698
"1786" 3 1 3 186 1 1.05547878324753
"1787" 3 1 3 187 1 0.709359947605059
"1788" 3 1 3 188 1 0.859797079117503
"1789" 3 1 3 189 1 0.656405673724832
"1790" 3 1 3 190 1 0.834680877894862
"1791" 3 1 3 191 1 0.545086250637658
"1792" 3 1 3 192 1 0.757273136547767
"1793" 3 1 3 193 1 0.369271891403012
"1794" 3 1 3 194 1 0.969676614338998
"1795" 3 1 3 195 1 0.806331035928801
"1796" 3 1 3 196 1 0.458953479424352
"1797" 3 1 3 197 1 0.80114918438578
"1798" 3 1 3 198 1 0.722019524383359
"1799" 3 1 3 199 1 0.825754077214282
"1800" 3 1 3 200 1 0.416278413282242
"1801" 4 1 1 1 1 1.66733371775341
"1802" 4 1 1 2 1 0.912377583868569
"1803" 4 1 1 3 1 0.359850319447927
"1804" 4 1 1 4 1 2.62555981905153
"1805" 4 1 1 5 1 0.314223411196144
"1806" 4 1 1 6 1 0.434856685962761
"1807" 4 1 1 7 1 2.28262642749026
"1808" 4 1 1 8 1 1.55717916119308
"1809" 4 1 1 9 0 0.764661095816875
"1810" 4 1 1 10 1 0.701332201164449
"1811" 4 1 1 11 1 3.50692309070122
"1812" 4 1 1 12 0 1.65385875335033
"1813" 4 1 1 13 1 1.32263157847105
"1814" 4 1 1 14 0 2.20359539676481
"1815" 4 1 1 15 1 1.26304851595988
"1816" 4 1 1 16 0 0.415446739950683
"1817" 4 1 1 17 1 1.06687448209617
"1818" 4 1 1 18 0 0.427023196656955
"1819" 4 1 1 19 1 1.07548438642663
"1820" 4 1 1 20 1 1.46459565332788
"1821" 4 1 1 21 1 0.580875964567764
"1822" 4 1 1 22 1 0.354789470844902
"1823" 4 1 1 23 1 0.856600142923649
"1824" 4 1 1 24 1 0.217074699204182
"1825" 4 1 1 25 1 0.878531786903739
"1826" 4 1 1 26 0 0.690757046715822
"1827" 4 1 1 27 1 0.792408403870883
"1828" 4 1 1 28 1 0.826591813861392
"1829" 4 1 1 29 1 1.37882328925212
"1830" 4 1 1 30 1 0.808054252621252
"1831" 4 1 1 31 0 0.290591592155397
"1832" 4 1 1 32 1 0.751350528829498
"1833" 4 1 1 33 1 0.391507690054597
"1834" 4 1 1 34 0 0.707381757638184
"1835" 4 1 1 35 0 1.2782168557134
"1836" 4 1 1 36 1 2.17732049506856
"1837" 4 1 1 37 1 0.598573839701945
"1838" 4 1 1 38 1 0.556920216186205
"1839" 4 1 1 39 0 1.09625907020713
"1840" 4 1 1 40 1 0.656558767963434
"1841" 4 1 1 41 1 1.05528852749546
"1842" 4 1 1 42 1 1.41966882608808
"1843" 4 1 1 43 1 1.09770124043152
"1844" 4 1 1 44 1 2.55465662462404
"1845" 4 1 1 45 1 0.4872234054117
"1846" 4 1 1 46 1 2.24139907014859
"1847" 4 1 1 47 1 0.537345292087179
"1848" 4 1 1 48 1 1.60084341432131
"1849" 4 1 1 49 1 1.30238402575022
"1850" 4 1 1 50 1 0.579776151367696
"1851" 4 1 1 51 1 0.37986779163219
"1852" 4 1 1 52 1 0.434019927203422
"1853" 4 1 1 53 1 3.09390606235038
"1854" 4 1 1 54 1 1.58882134491066
"1855" 4 1 1 55 1 1.27672118123574
"1856" 4 1 1 56 0 1.09131196721806
"1857" 4 1 1 57 1 0.429371794618666
"1858" 4 1 1 58 1 0.391710299612023
"1859" 4 1 1 59 0 0.39240577518777
"1860" 4 1 1 60 1 4.15643883857271
"1861" 4 1 1 61 1 0.660499258868629
"1862" 4 1 1 62 0 2.38851120693353
"1863" 4 1 1 63 1 0.644908222359372
"1864" 4 1 1 64 0 0.34682930580806
"1865" 4 1 1 65 1 1.28407113758218
"1866" 4 1 1 66 1 1.83632004396361
"1867" 4 1 1 67 1 0.381736041030847
"1868" 4 1 1 68 0 2.17011904516933
"1869" 4 1 1 69 1 0.913476605279371
"1870" 4 1 1 70 0 1.62776625991124
"1871" 4 1 1 71 1 0.765039469161304
"1872" 4 1 1 72 1 2.35176777033554
"1873" 4 1 1 73 0 0.605341319740051
"1874" 4 1 1 74 0 0.811478135909885
"1875" 4 1 1 75 1 0.783026667053346
"1876" 4 1 1 76 1 1.07856621949212
"1877" 4 1 1 77 1 0.402728156389436
"1878" 4 1 1 78 1 3.41998960370338
"1879" 4 1 1 79 1 1.22846958745434
"1880" 4 1 1 80 1 1.36076915176841
"1881" 4 1 1 81 1 2.80228876405512
"1882" 4 1 1 82 1 0.764805333953584
"1883" 4 1 1 83 1 0.380457937202649
"1884" 4 1 1 84 1 0.607598908385029
"1885" 4 1 1 85 1 0.660359226773027
"1886" 4 1 1 86 0 0.763914073170163
"1887" 4 1 1 87 1 0.475575994390296
"1888" 4 1 1 88 1 0.362895579334116
"1889" 4 1 1 89 0 0.421649808322312
"1890" 4 1 1 90 0 0.780934287910117
"1891" 4 1 1 91 1 1.51099070494645
"1892" 4 1 1 92 0 0.934924591426505
"1893" 4 1 1 93 1 0.64186605900689
"1894" 4 1 1 94 1 0.517095030035125
"1895" 4 1 1 95 1 0.596179640014889
"1896" 4 1 1 96 1 1.34659468850796
"1897" 4 1 1 97 1 0.873550547046587
"1898" 4 1 1 98 0 1.34246373915952
"1899" 4 1 1 99 1 1.25802244910365
"1900" 4 1 1 100 1 0.420683578833472
"1901" 4 1 1 101 1 0.420384003071813
"1902" 4 1 1 102 1 0.712924301849911
"1903" 4 1 1 103 1 1.61592954575713
"1904" 4 1 1 104 0 0.433788843013113
"1905" 4 1 1 105 1 0.370600395188667
"1906" 4 1 1 106 1 1.15523779048445
"1907" 4 1 1 107 1 0.867793465250637
"1908" 4 1 1 108 0 1.51446100283763
"1909" 4 1 1 109 1 2.81808382217679
"1910" 4 1 1 110 1 3.06267404077109
"1911" 4 1 1 111 0 0.923872618635884
"1912" 4 1 1 112 0 0.355801487270975
"1913" 4 1 1 113 1 0.718551513564074
"1914" 4 1 1 114 1 0.316151822562329
"1915" 4 1 1 115 0 1.31475210085744
"1916" 4 1 1 116 1 0.422372325250879
"1917" 4 1 1 117 0 0.614906068001408
"1918" 4 1 1 118 1 0.751218184186611
"1919" 4 1 1 119 1 0.807354415570386
"1920" 4 1 1 120 1 0.539967851758236
"1921" 4 1 1 121 1 0.447718189272098
"1922" 4 1 1 122 1 2.37928456021613
"1923" 4 1 1 123 1 1.52537868730188
"1924" 4 1 1 124 0 0.598374616621761
"1925" 4 1 1 125 1 1.56433557101944
"1926" 4 1 1 126 0 1.0079417551565
"1927" 4 1 1 127 1 0.659206667481689
"1928" 4 1 1 128 1 1.69181497890363
"1929" 4 1 1 129 1 2.88232881887956
"1930" 4 1 1 130 1 1.32958183691651
"1931" 4 1 1 131 1 0.451833190567093
"1932" 4 1 1 132 1 2.82700570947677
"1933" 4 1 1 133 0 1.49171422622097
"1934" 4 1 1 134 0 0.344334622521885
"1935" 4 1 1 135 1 0.73814510402875
"1936" 4 1 1 136 1 5.15336761932517
"1937" 4 1 1 137 1 0.335424735052278
"1938" 4 1 1 138 1 0.815233768831473
"1939" 4 1 1 139 0 0.511560364682693
"1940" 4 1 1 140 1 1.09642712124903
"1941" 4 1 1 141 1 1.33710608982109
"1942" 4 1 1 142 1 1.6143602907029
"1943" 4 1 1 143 1 0.865927905939054
"1944" 4 1 1 144 1 0.438753276736708
"1945" 4 1 1 145 1 2.14228388047451
"1946" 4 1 1 146 1 0.483966607616749
"1947" 4 1 1 147 1 1.93443478444568
"1948" 4 1 1 148 1 1.3452312503173
"1949" 4 1 1 149 1 0.774145942868199
"1950" 4 1 1 150 1 1.94996477840468
"1951" 4 1 1 151 0 1.45092093016417
"1952" 4 1 1 152 0 0.615658830298111
"1953" 4 1 1 153 1 0.335686525077792
"1954" 4 1 1 154 0 0.817179486915702
"1955" 4 1 1 155 0 0.808389681937639
"1956" 4 1 1 156 1 1.88010702922102
"1957" 4 1 1 157 1 0.906135415442521
"1958" 4 1 1 158 1 0.881646158608142
"1959" 4 1 1 159 1 0.74839365791087
"1960" 4 1 1 160 1 2.09333838077053
"1961" 4 1 1 161 1 2.17443032639241
"1962" 4 1 1 162 1 0.888950711885002
"1963" 4 1 1 163 1 2.22833618458896
"1964" 4 1 1 164 0 0.593104163395241
"1965" 4 1 1 165 0 0.874421520945383
"1966" 4 1 1 166 1 0.646553598929197
"1967" 4 1 1 167 1 0.781443604874425
"1968" 4 1 1 168 1 1.75059909248026
"1969" 4 1 1 169 1 0.394508729013149
"1970" 4 1 1 170 1 0.645650326634524
"1971" 4 1 1 171 1 1.16572831740952
"1972" 4 1 1 172 1 0.45049944433989
"1973" 4 1 1 173 0 0.399031886211131
"1974" 4 1 1 174 1 1.06265520882886
"1975" 4 1 1 175 1 1.23950371135864
"1976" 4 1 1 176 1 1.77959953681682
"1977" 4 1 1 177 1 2.54793206303171
"1978" 4 1 1 178 1 0.82125998820574
"1979" 4 1 1 179 0 1.69419320095144
"1980" 4 1 1 180 0 0.471575286466163
"1981" 4 1 1 181 1 0.991282118975418
"1982" 4 1 1 182 1 0.674154224267928
"1983" 4 1 1 183 0 0.402772969902493
"1984" 4 1 1 184 1 0.738048696649494
"1985" 4 1 1 185 1 2.02179747399851
"1986" 4 1 1 186 1 1.84215586133022
"1987" 4 1 1 187 1 1.73927853196557
"1988" 4 1 1 188 0 0.54085114977858
"1989" 4 1 1 189 1 1.98010493394802
"1990" 4 1 1 190 1 0.45583965855022
"1991" 4 1 1 191 1 1.6927115098855
"1992" 4 1 1 192 0 0.241455404017353
"1993" 4 1 1 193 1 0.687361996106803
"1994" 4 1 1 194 1 1.15726853684778
"1995" 4 1 1 195 0 1.18193853089213
"1996" 4 1 1 196 1 0.776807857925771
"1997" 4 1 1 197 1 0.534314955136506
"1998" 4 1 1 198 1 1.35725243167114
"1999" 4 1 1 199 1 0.826511003496591
"2000" 4 1 1 200 1 0.66929320807918
"2001" 4 1 2 1 0 1.06104629072174
"2002" 4 1 2 2 1 1.17515718650958
"2003" 4 1 2 3 0 1.46475703986734
"2004" 4 1 2 4 1 1.70635528985364
"2005" 4 1 2 5 0 1.04846120956936
"2006" 4 1 2 6 0 2.37206747502997
"2007" 4 1 2 7 0 3.31790623636846
"2008" 4 1 2 8 0 2.86452169617382
"2009" 4 1 2 9 1 0.908060780955479
"2010" 4 1 2 10 0 1.45537640763191
"2011" 4 1 2 11 0 2.79635875736759
"2012" 4 1 2 12 1 3.54503489326825
"2013" 4 1 2 13 0 1.90578093894431
"2014" 4 1 2 14 0 0.975137222558959
"2015" 4 1 2 15 0 2.97025893076276
"2016" 4 1 2 16 0 0.857097657732666
"2017" 4 1 2 17 0 3.6897100597627
"2018" 4 1 2 18 0 1.28503804140515
"2019" 4 1 2 19 0 0.729806399081368
"2020" 4 1 2 20 0 0.667657192155253
"2021" 4 1 2 21 0 1.40712641829508
"2022" 4 1 2 22 0 1.12059743046109
"2023" 4 1 2 23 0 3.29122328218492
"2024" 4 1 2 24 0 1.9715595532211
"2025" 4 1 2 25 1 1.99830067979568
"2026" 4 1 2 26 1 4.24828890899918
"2027" 4 1 2 27 0 2.08336779151228
"2028" 4 1 2 28 0 1.54095934562199
"2029" 4 1 2 29 0 3.94577779350313
"2030" 4 1 2 30 0 1.20361276007118
"2031" 4 1 2 31 0 4.52652636906388
"2032" 4 1 2 32 0 3.14253470528009
"2033" 4 1 2 33 1 3.39970677115885
"2034" 4 1 2 34 0 1.23645157542406
"2035" 4 1 2 35 0 0.877974421327701
"2036" 4 1 2 36 0 0.529236942438642
"2037" 4 1 2 37 1 3.94555984357465
"2038" 4 1 2 38 0 1.17272698607133
"2039" 4 1 2 39 1 3.91512691029743
"2040" 4 1 2 40 1 3.12324403797742
"2041" 4 1 2 41 0 2.35241249121213
"2042" 4 1 2 42 0 1.2866194490497
"2043" 4 1 2 43 0 2.77027093489631
"2044" 4 1 2 44 0 2.55613588797278
"2045" 4 1 2 45 0 2.86606168472231
"2046" 4 1 2 46 0 2.36370134374849
"2047" 4 1 2 47 0 1.19362668223912
"2048" 4 1 2 48 0 4.71087157643517
"2049" 4 1 2 49 0 2.5141123053371
"2050" 4 1 2 50 0 2.35601168786921
"2051" 4 1 2 51 0 1.02665749067138
"2052" 4 1 2 52 0 1.14986074469704
"2053" 4 1 2 53 0 3.18904139527027
"2054" 4 1 2 54 1 7.60892277366971
"2055" 4 1 2 55 0 3.14500869221613
"2056" 4 1 2 56 0 2.42974971451494
"2057" 4 1 2 57 0 0.776512971560936
"2058" 4 1 2 58 0 1.89687825601734
"2059" 4 1 2 59 0 1.29809472669126
"2060" 4 1 2 60 0 4.71948635603581
"2061" 4 1 2 61 0 1.08720391846169
"2062" 4 1 2 62 1 3.26562220363831
"2063" 4 1 2 63 0 2.25252938266564
"2064" 4 1 2 64 1 3.13051716691558
"2065" 4 1 2 65 0 1.46733628701163
"2066" 4 1 2 66 0 4.3412533500765
"2067" 4 1 2 67 0 3.10623203664809
"2068" 4 1 2 68 1 5.1723893259475
"2069" 4 1 2 69 0 1.67112189990678
"2070" 4 1 2 70 1 1.43841054548579
"2071" 4 1 2 71 0 3.93659388542851
"2072" 4 1 2 72 0 0.939648944606539
"2073" 4 1 2 73 0 1.34354333261657
"2074" 4 1 2 74 0 0.672604970990447
"2075" 4 1 2 75 0 1.89580139842909
"2076" 4 1 2 76 0 1.10232662212756
"2077" 4 1 2 77 1 2.97076393976761
"2078" 4 1 2 78 1 2.12903417479666
"2079" 4 1 2 79 0 1.04455798116839
"2080" 4 1 2 80 0 1.89264662758214
"2081" 4 1 2 81 0 2.03455938031524
"2082" 4 1 2 82 0 1.55311623613397
"2083" 4 1 2 83 0 2.24718048409186
"2084" 4 1 2 84 0 4.85447615635558
"2085" 4 1 2 85 0 3.62499399911449
"2086" 4 1 2 86 0 0.675930806739954
"2087" 4 1 2 87 0 5.52425650391122
"2088" 4 1 2 88 0 1.2032918502402
"2089" 4 1 2 89 0 2.2849311124268
"2090" 4 1 2 90 0 0.87775727033033
"2091" 4 1 2 91 0 4.82121984631335
"2092" 4 1 2 92 0 1.61866673534829
"2093" 4 1 2 93 0 8.59105177134695
"2094" 4 1 2 94 0 1.10233069281979
"2095" 4 1 2 95 0 0.431742859614082
"2096" 4 1 2 96 0 3.25334631438856
"2097" 4 1 2 97 0 1.57604775517574
"2098" 4 1 2 98 0 0.894050264341291
"2099" 4 1 2 99 0 2.30226003908971
"2100" 4 1 2 100 0 1.22354823597078
"2101" 4 1 2 101 0 1.94171708147437
"2102" 4 1 2 102 0 3.82740911122831
"2103" 4 1 2 103 1 2.72284894177504
"2104" 4 1 2 104 0 2.43916405028896
"2105" 4 1 2 105 0 0.589556600833079
"2106" 4 1 2 106 0 1.39060331064952
"2107" 4 1 2 107 0 1.04356012019375
"2108" 4 1 2 108 0 0.596098662996199
"2109" 4 1 2 109 0 1.87864956350997
"2110" 4 1 2 110 0 2.44444396023499
"2111" 4 1 2 111 0 3.69700525255268
"2112" 4 1 2 112 0 1.6834637740762
"2113" 4 1 2 113 0 3.99985500983545
"2114" 4 1 2 114 0 0.658773234342923
"2115" 4 1 2 115 0 0.699042022106703
"2116" 4 1 2 116 0 4.62733331229584
"2117" 4 1 2 117 0 6.26550723961415
"2118" 4 1 2 118 0 0.922392246650299
"2119" 4 1 2 119 1 3.89227135687927
"2120" 4 1 2 120 0 2.28603587564942
"2121" 4 1 2 121 0 1.44312251777109
"2122" 4 1 2 122 0 2.46006813903991
"2123" 4 1 2 123 0 2.3452118955066
"2124" 4 1 2 124 0 1.32129341997439
"2125" 4 1 2 125 0 1.93786158461939
"2126" 4 1 2 126 0 1.30006713248114
"2127" 4 1 2 127 0 0.948375807314878
"2128" 4 1 2 128 0 0.991195362003054
"2129" 4 1 2 129 0 2.15922164117824
"2130" 4 1 2 130 0 1.48939298589458
"2131" 4 1 2 131 0 3.79431360355695
"2132" 4 1 2 132 0 1.56838201453537
"2133" 4 1 2 133 0 1.91320861622947
"2134" 4 1 2 134 0 0.970048605778254
"2135" 4 1 2 135 1 1.55235688790353
"2136" 4 1 2 136 0 12.3579080346962
"2137" 4 1 2 137 0 1.87128464527475
"2138" 4 1 2 138 0 2.84390366670676
"2139" 4 1 2 139 1 2.28422243423807
"2140" 4 1 2 140 0 4.39238281220943
"2141" 4 1 2 141 0 4.29955531413108
"2142" 4 1 2 142 0 2.47585751667153
"2143" 4 1 2 143 0 3.38560629046452
"2144" 4 1 2 144 0 0.712298391022021
"2145" 4 1 2 145 0 1.96461463218508
"2146" 4 1 2 146 0 0.721771136609139
"2147" 4 1 2 147 0 2.521843606818
"2148" 4 1 2 148 0 1.83800900697522
"2149" 4 1 2 149 0 0.809777263417607
"2150" 4 1 2 150 0 1.76214074503048
"2151" 4 1 2 151 0 4.77530588630238
"2152" 4 1 2 152 0 9.75626377533516
"2153" 4 1 2 153 0 2.0017433304484
"2154" 4 1 2 154 0 0.743877416440286
"2155" 4 1 2 155 0 8.50217064464628
"2156" 4 1 2 156 1 1.33399003230711
"2157" 4 1 2 157 0 1.26569581145281
"2158" 4 1 2 158 0 1.52412111470522
"2159" 4 1 2 159 0 1.69190227668337
"2160" 4 1 2 160 0 1.2954968985389
"2161" 4 1 2 161 0 1.4578185083454
"2162" 4 1 2 162 0 1.71024423350091
"2163" 4 1 2 163 0 1.67793860484031
"2164" 4 1 2 164 0 1.91511869830918
"2165" 4 1 2 165 0 0.853045165992575
"2166" 4 1 2 166 0 1.31637846386712
"2167" 4 1 2 167 0 1.16888732306822
"2168" 4 1 2 168 0 0.939154309263453
"2169" 4 1 2 169 0 3.28171886342275
"2170" 4 1 2 170 0 0.765674148565624
"2171" 4 1 2 171 0 4.77690590014285
"2172" 4 1 2 172 0 2.23931440794608
"2173" 4 1 2 173 0 0.683740856047953
"2174" 4 1 2 174 1 4.4997611609688
"2175" 4 1 2 175 0 0.866939795952523
"2176" 4 1 2 176 0 3.0511597349681
"2177" 4 1 2 177 0 5.89731226868648
"2178" 4 1 2 178 0 1.3389705240957
"2179" 4 1 2 179 0 5.02804658296122
"2180" 4 1 2 180 0 1.86268587914691
"2181" 4 1 2 181 0 2.38613031578111
"2182" 4 1 2 182 0 1.53588406110788
"2183" 4 1 2 183 0 0.918078261947259
"2184" 4 1 2 184 0 2.04771173224552
"2185" 4 1 2 185 0 3.71128990625171
"2186" 4 1 2 186 1 0.938569287420483
"2187" 4 1 2 187 0 1.23679921057587
"2188" 4 1 2 188 0 1.16681758749462
"2189" 4 1 2 189 1 1.2173206742655
"2190" 4 1 2 190 1 2.1202004481738
"2191" 4 1 2 191 0 1.25041762059275
"2192" 4 1 2 192 0 4.82371590015478
"2193" 4 1 2 193 1 1.79456569407927
"2194" 4 1 2 194 0 1.88418650411651
"2195" 4 1 2 195 0 1.75764842271362
"2196" 4 1 2 196 0 4.6881207344844
"2197" 4 1 2 197 0 0.576799227756215
"2198" 4 1 2 198 0 1.51340000195545
"2199" 4 1 2 199 0 2.44315982234455
"2200" 4 1 2 200 0 1.40829702794459
"2201" 4 1 3 1 1 0.949621701234486
"2202" 4 1 3 2 0 0.660736289651366
"2203" 4 1 3 3 1 2.71105298874015
"2204" 4 1 3 4 1 1.00988205504999
"2205" 4 1 3 5 1 0.954223092040513
"2206" 4 1 3 6 1 0.551471895488212
"2207" 4 1 3 7 1 0.841585053827381
"2208" 4 1 3 8 1 0.299953587456606
"2209" 4 1 3 9 1 0.46723394902912
"2210" 4 1 3 10 1 0.444032480050111
"2211" 4 1 3 11 0 0.428146709577646
"2212" 4 1 3 12 1 0.781533902440919
"2213" 4 1 3 13 1 0.487945677299751
"2214" 4 1 3 14 1 0.41618454645155
"2215" 4 1 3 15 1 0.552461499949917
"2216" 4 1 3 16 0 0.599746456982102
"2217" 4 1 3 17 0 0.717185868406203
"2218" 4 1 3 18 0 0.961918968110113
"2219" 4 1 3 19 1 0.415640057101147
"2220" 4 1 3 20 1 0.326867451314814
"2221" 4 1 3 21 1 1.36923379570246
"2222" 4 1 3 22 1 0.721862092694733
"2223" 4 1 3 23 1 0.527081331579248
"2224" 4 1 3 24 0 1.22096098062024
"2225" 4 1 3 25 1 0.474111621164717
"2226" 4 1 3 26 0 0.542450415930012
"2227" 4 1 3 27 1 0.48296024631639
"2228" 4 1 3 28 1 0.491260005236138
"2229" 4 1 3 29 1 0.475396846295334
"2230" 4 1 3 30 1 1.35189735846152
"2231" 4 1 3 31 0 0.422303679482546
"2232" 4 1 3 32 1 0.281124500517501
"2233" 4 1 3 33 1 0.772757184189744
"2234" 4 1 3 34 1 0.431894727045205
"2235" 4 1 3 35 1 2.02296934939432
"2236" 4 1 3 36 1 1.0824436217011
"2237" 4 1 3 37 1 0.612178282940993
"2238" 4 1 3 38 0 0.285079063515877
"2239" 4 1 3 39 0 0.858524106811266
"2240" 4 1 3 40 1 1.24911303671054
"2241" 4 1 3 41 1 0.557955330715515
"2242" 4 1 3 42 1 0.489624010062777
"2243" 4 1 3 43 1 1.76054182396177
"2244" 4 1 3 44 1 4.13367808838654
"2245" 4 1 3 45 1 0.468634194425074
"2246" 4 1 3 46 0 0.660102309578564
"2247" 4 1 3 47 1 0.709942245642422
"2248" 4 1 3 48 1 0.843142546786461
"2249" 4 1 3 49 1 0.933253894996131
"2250" 4 1 3 50 1 0.361329788827803
"2251" 4 1 3 51 1 1.04191530266032
"2252" 4 1 3 52 1 0.443948157177307
"2253" 4 1 3 53 0 0.947903983459808
"2254" 4 1 3 54 1 0.29389548651292
"2255" 4 1 3 55 0 2.43298349133763
"2256" 4 1 3 56 0 0.496884642293211
"2257" 4 1 3 57 1 2.09577851010393
"2258" 4 1 3 58 1 1.20447121516266
"2259" 4 1 3 59 1 1.01556735428795
"2260" 4 1 3 60 1 3.63457861592434
"2261" 4 1 3 61 1 0.466245770295151
"2262" 4 1 3 62 1 0.68154712666315
"2263" 4 1 3 63 1 0.921635300376453
"2264" 4 1 3 64 1 0.60393295832607
"2265" 4 1 3 65 1 1.88669859882747
"2266" 4 1 3 66 0 0.860923151263036
"2267" 4 1 3 67 0 1.32833455757494
"2268" 4 1 3 68 1 0.477426882373402
"2269" 4 1 3 69 1 0.627294223748846
"2270" 4 1 3 70 1 1.11798252927256
"2271" 4 1 3 71 1 0.576053901853971
"2272" 4 1 3 72 1 0.374244121568277
"2273" 4 1 3 73 1 0.958055114612216
"2274" 4 1 3 74 1 0.769588310829131
"2275" 4 1 3 75 1 1.60318970025075
"2276" 4 1 3 76 1 1.43712219908834
"2277" 4 1 3 77 1 1.45283697513933
"2278" 4 1 3 78 1 1.43712747560139
"2279" 4 1 3 79 0 0.733296612906736
"2280" 4 1 3 80 1 1.6388321058678
"2281" 4 1 3 81 1 0.268617796388455
"2282" 4 1 3 82 1 1.51662391182454
"2283" 4 1 3 83 1 0.635428019830491
"2284" 4 1 3 84 1 1.03904289638926
"2285" 4 1 3 85 1 0.358804127919255
"2286" 4 1 3 86 1 0.400994819092331
"2287" 4 1 3 87 1 1.28248760618246
"2288" 4 1 3 88 1 1.17764939736761
"2289" 4 1 3 89 1 1.06263236064208
"2290" 4 1 3 90 1 0.37274070088123
"2291" 4 1 3 91 1 0.39815243606572
"2292" 4 1 3 92 1 0.965046980455052
"2293" 4 1 3 93 1 0.502057800377021
"2294" 4 1 3 94 1 0.808249146455666
"2295" 4 1 3 95 1 0.33075941577903
"2296" 4 1 3 96 1 0.945940263588447
"2297" 4 1 3 97 0 0.562370222914964
"2298" 4 1 3 98 1 1.0848133929139
"2299" 4 1 3 99 1 0.794132873703726
"2300" 4 1 3 100 1 1.04535210034042
"2301" 4 1 3 101 1 0.673320058659185
"2302" 4 1 3 102 1 0.647702086050995
"2303" 4 1 3 103 1 1.78865644703852
"2304" 4 1 3 104 1 0.936486978529021
"2305" 4 1 3 105 1 1.07400262969872
"2306" 4 1 3 106 0 2.07688877013302
"2307" 4 1 3 107 0 0.580692286310019
"2308" 4 1 3 108 1 0.582477133514592
"2309" 4 1 3 109 1 0.390549961948069
"2310" 4 1 3 110 1 0.706621029443108
"2311" 4 1 3 111 1 0.801159168767277
"2312" 4 1 3 112 1 1.09662570204563
"2313" 4 1 3 113 1 0.34006970884325
"2314" 4 1 3 114 1 0.270432764391881
"2315" 4 1 3 115 1 0.635270263492596
"2316" 4 1 3 116 1 0.842873601217754
"2317" 4 1 3 117 1 0.583125177232781
"2318" 4 1 3 118 0 0.79362577441521
"2319" 4 1 3 119 1 2.76349413427478
"2320" 4 1 3 120 1 1.316927916307
"2321" 4 1 3 121 1 0.321077245620778
"2322" 4 1 3 122 0 0.85530746341031
"2323" 4 1 3 123 1 0.518938409914728
"2324" 4 1 3 124 1 1.19160051421961
"2325" 4 1 3 125 1 0.640754840922775
"2326" 4 1 3 126 0 1.07570877305255
"2327" 4 1 3 127 1 0.946949681345373
"2328" 4 1 3 128 1 0.841855550626526
"2329" 4 1 3 129 1 1.96150671954686
"2330" 4 1 3 130 1 2.05269947569422
"2331" 4 1 3 131 1 0.724962039902108
"2332" 4 1 3 132 1 4.08676514445874
"2333" 4 1 3 133 1 0.671671705917921
"2334" 4 1 3 134 1 0.880122332568746
"2335" 4 1 3 135 1 1.55359055828443
"2336" 4 1 3 136 1 0.538311951295007
"2337" 4 1 3 137 1 0.527824421808589
"2338" 4 1 3 138 1 1.6971729087045
"2339" 4 1 3 139 1 0.835845834742067
"2340" 4 1 3 140 1 0.855666997224791
"2341" 4 1 3 141 1 1.57208467602474
"2342" 4 1 3 142 1 0.664569067293545
"2343" 4 1 3 143 1 1.0845953944996
"2344" 4 1 3 144 1 1.03397587360791
"2345" 4 1 3 145 1 0.719707406596979
"2346" 4 1 3 146 1 0.543958272169111
"2347" 4 1 3 147 1 0.511649208875373
"2348" 4 1 3 148 0 0.332335878130049
"2349" 4 1 3 149 1 0.975062752107624
"2350" 4 1 3 150 1 1.20015488227806
"2351" 4 1 3 151 1 1.8071221400986
"2352" 4 1 3 152 1 0.873616609791992
"2353" 4 1 3 153 0 0.790065395875368
"2354" 4 1 3 154 1 0.51665156382625
"2355" 4 1 3 155 0 0.797993147164583
"2356" 4 1 3 156 1 2.33101301868469
"2357" 4 1 3 157 1 0.957586085942341
"2358" 4 1 3 158 1 0.477331776665291
"2359" 4 1 3 159 1 0.449787398666842
"2360" 4 1 3 160 0 1.00391598170204
"2361" 4 1 3 161 1 0.779332423002692
"2362" 4 1 3 162 1 0.60355528356554
"2363" 4 1 3 163 0 0.926250805068295
"2364" 4 1 3 164 1 0.703180206991732
"2365" 4 1 3 165 1 1.04114161855727
"2366" 4 1 3 166 1 0.663214410953922
"2367" 4 1 3 167 1 0.460793371588923
"2368" 4 1 3 168 0 0.366552558475873
"2369" 4 1 3 169 1 0.909904861141695
"2370" 4 1 3 170 0 0.784906892806059
"2371" 4 1 3 171 1 0.591208836647216
"2372" 4 1 3 172 1 0.47988658214407
"2373" 4 1 3 173 1 1.79374076816323
"2374" 4 1 3 174 1 0.506921185348183
"2375" 4 1 3 175 1 1.62349024268845
"2376" 4 1 3 176 1 0.476070845418144
"2377" 4 1 3 177 1 0.625359847571235
"2378" 4 1 3 178 1 0.86275885856268
"2379" 4 1 3 179 1 1.33873017656803
"2380" 4 1 3 180 1 1.2480701683457
"2381" 4 1 3 181 1 3.2504896885159
"2382" 4 1 3 182 1 0.684750009590527
"2383" 4 1 3 183 1 0.381975529772462
"2384" 4 1 3 184 0 0.479153784334892
"2385" 4 1 3 185 0 0.391344816943165
"2386" 4 1 3 186 1 2.47369676028169
"2387" 4 1 3 187 0 0.619908735075733
"2388" 4 1 3 188 1 2.19917058822536
"2389" 4 1 3 189 1 2.39574292663764
"2390" 4 1 3 190 1 0.444182870088378
"2391" 4 1 3 191 1 0.665433912579902
"2392" 4 1 3 192 0 1.2337292252183
"2393" 4 1 3 193 1 0.514350443352014
"2394" 4 1 3 194 1 1.65734587077051
"2395" 4 1 3 195 1 1.37184525319026
"2396" 4 1 3 196 1 0.62777592400508
"2397" 4 1 3 197 1 1.42412215711735
"2398" 4 1 3 198 0 0.882405561910011
"2399" 4 1 3 199 1 0.899841189248953
"2400" 4 1 3 200 0 1.56134319089609
"2401" 5 1 1 1 1 0.719235950132832
"2402" 5 1 1 2 0 0.861781862355303
"2403" 5 1 1 3 0 0.514017262494657
"2404" 5 1 1 4 1 0.659132193987956
"2405" 5 1 1 5 0 1.10010336971213
"2406" 5 1 1 6 1 0.739019313871861
"2407" 5 1 1 7 0 0.869929660687456
"2408" 5 1 1 8 1 0.918568141245982
"2409" 5 1 1 9 0 0.321865251393756
"2410" 5 1 1 10 0 0.611566870110109
"2411" 5 1 1 11 1 4.30195701719192
"2412" 5 1 1 12 0 1.04034738848801
"2413" 5 1 1 13 1 0.977952758661937
"2414" 5 1 1 14 1 0.301177438796265
"2415" 5 1 1 15 1 1.11291646332736
"2416" 5 1 1 16 1 0.735891761678737
"2417" 5 1 1 17 1 1.15875376183703
"2418" 5 1 1 18 1 1.71353789438307
"2419" 5 1 1 19 0 1.08731717124279
"2420" 5 1 1 20 1 1.90946944336267
"2421" 5 1 1 21 1 0.722857655621367
"2422" 5 1 1 22 0 0.470647642604308
"2423" 5 1 1 23 1 0.739321501662489
"2424" 5 1 1 24 0 1.5291563766005
"2425" 5 1 1 25 1 0.789639705363195
"2426" 5 1 1 26 0 0.869041471196106
"2427" 5 1 1 27 1 0.957878432252212
"2428" 5 1 1 28 0 0.399534636055585
"2429" 5 1 1 29 1 0.971775398219936
"2430" 5 1 1 30 1 0.574027316099498
"2431" 5 1 1 31 1 0.378266650713049
"2432" 5 1 1 32 0 0.901250086714979
"2433" 5 1 1 33 1 0.303705260348041
"2434" 5 1 1 34 1 0.783804653891362
"2435" 5 1 1 35 0 0.951310592664871
"2436" 5 1 1 36 1 0.553301211766433
"2437" 5 1 1 37 1 0.686092356554
"2438" 5 1 1 38 0 0.403705962923355
"2439" 5 1 1 39 0 5.15981074290699
"2440" 5 1 1 40 1 0.317651978481095
"2441" 5 1 1 41 1 1.49328824380995
"2442" 5 1 1 42 1 0.618252022783505
"2443" 5 1 1 43 0 1.02184831660567
"2444" 5 1 1 44 0 0.635721794566838
"2445" 5 1 1 45 1 0.374737197651994
"2446" 5 1 1 46 0 1.03272557223123
"2447" 5 1 1 47 0 0.344610360584455
"2448" 5 1 1 48 0 3.83566159875155
"2449" 5 1 1 49 1 0.554848216156941
"2450" 5 1 1 50 1 0.516660162801389
"2451" 5 1 1 51 0 0.616150923718698
"2452" 5 1 1 52 0 1.68815540456073
"2453" 5 1 1 53 1 1.0429423338091
"2454" 5 1 1 54 1 1.59859451526077
"2455" 5 1 1 55 1 0.441316575503675
"2456" 5 1 1 56 1 0.389826896450482
"2457" 5 1 1 57 1 1.23475897439499
"2458" 5 1 1 58 1 0.409052606550744
"2459" 5 1 1 59 0 1.33223180805193
"2460" 5 1 1 60 1 0.410297412590357
"2461" 5 1 1 61 1 0.450702455713414
"2462" 5 1 1 62 0 0.825054892394692
"2463" 5 1 1 63 0 0.60442593997065
"2464" 5 1 1 64 1 0.573021180123557
"2465" 5 1 1 65 1 0.601201781886164
"2466" 5 1 1 66 1 0.799305190908955
"2467" 5 1 1 67 0 0.51787883036444
"2468" 5 1 1 68 1 2.94682073460356
"2469" 5 1 1 69 1 0.44949035711959
"2470" 5 1 1 70 1 1.38372618464124
"2471" 5 1 1 71 1 1.48213815606781
"2472" 5 1 1 72 1 1.21453462322941
"2473" 5 1 1 73 1 0.670174634191673
"2474" 5 1 1 74 0 0.405504391784081
"2475" 5 1 1 75 1 2.62513347573532
"2476" 5 1 1 76 1 0.89419310414046
"2477" 5 1 1 77 1 0.327457174153067
"2478" 5 1 1 78 0 1.9487659984855
"2479" 5 1 1 79 1 0.475807448324515
"2480" 5 1 1 80 0 0.847666680868715
"2481" 5 1 1 81 1 0.7357765544469
"2482" 5 1 1 82 1 1.20205524531123
"2483" 5 1 1 83 0 0.737966066361871
"2484" 5 1 1 84 0 0.489292062009685
"2485" 5 1 1 85 0 0.427678626624169
"2486" 5 1 1 86 0 0.564085783782182
"2487" 5 1 1 87 1 0.690663799989736
"2488" 5 1 1 88 1 0.450165082621854
"2489" 5 1 1 89 1 0.502899354866706
"2490" 5 1 1 90 0 1.22936205791379
"2491" 5 1 1 91 1 0.465560635823756
"2492" 5 1 1 92 0 4.27860966964928
"2493" 5 1 1 93 1 1.42900845323619
"2494" 5 1 1 94 0 0.829013396043563
"2495" 5 1 1 95 1 0.893453146247659
"2496" 5 1 1 96 1 0.789134134643013
"2497" 5 1 1 97 1 2.89890980559145
"2498" 5 1 1 98 0 0.928631840462331
"2499" 5 1 1 99 0 0.758056711690733
"2500" 5 1 1 100 1 0.819638767396798
"2501" 5 1 1 101 0 0.402542704198277
"2502" 5 1 1 102 1 0.670382439934183
"2503" 5 1 1 103 1 1.31115520905401
"2504" 5 1 1 104 0 0.836636699340306
"2505" 5 1 1 105 0 0.871854318978731
"2506" 5 1 1 106 1 0.441065106603783
"2507" 5 1 1 107 0 1.14687806250853
"2508" 5 1 1 108 1 0.283584862809628
"2509" 5 1 1 109 1 1.09984986812389
"2510" 5 1 1 110 1 2.37106772072194
"2511" 5 1 1 111 1 0.561087280967971
"2512" 5 1 1 112 1 0.335578430362279
"2513" 5 1 1 113 0 0.929070423942292
"2514" 5 1 1 114 0 1.15294259325182
"2515" 5 1 1 115 0 0.818166502621025
"2516" 5 1 1 116 1 1.10571000489499
"2517" 5 1 1 117 0 1.19241429935792
"2518" 5 1 1 118 0 0.650454420286231
"2519" 5 1 1 119 0 0.696430962907849
"2520" 5 1 1 120 1 1.64838835774921
"2521" 5 1 1 121 0 0.785638784711249
"2522" 5 1 1 122 1 1.52808095129486
"2523" 5 1 1 123 1 0.757512818884104
"2524" 5 1 1 124 0 0.399104169798316
"2525" 5 1 1 125 0 1.09968246471765
"2526" 5 1 1 126 1 0.522809442024911
"2527" 5 1 1 127 1 0.682216994989198
"2528" 5 1 1 128 1 2.72251843540068
"2529" 5 1 1 129 0 0.373856878924882
"2530" 5 1 1 130 1 0.49918309251708
"2531" 5 1 1 131 0 1.02445101216575
"2532" 5 1 1 132 1 0.631130402617389
"2533" 5 1 1 133 1 0.303177890015766
"2534" 5 1 1 134 1 1.32216326453327
"2535" 5 1 1 135 1 1.35485727035813
"2536" 5 1 1 136 0 0.478443872794276
"2537" 5 1 1 137 0 0.52119024138269
"2538" 5 1 1 138 1 0.404432211655658
"2539" 5 1 1 139 1 0.900874794265721
"2540" 5 1 1 140 1 1.06914720542729
"2541" 5 1 1 141 1 0.750547190118814
"2542" 5 1 1 142 1 0.405719602379948
"2543" 5 1 1 143 1 0.688862085829955
"2544" 5 1 1 144 0 1.24887602645066
"2545" 5 1 1 145 1 1.73436407902953
"2546" 5 1 1 146 0 0.734411415706621
"2547" 5 1 1 147 1 0.793037100030575
"2548" 5 1 1 148 0 0.572706030250294
"2549" 5 1 1 149 1 0.398609757419443
"2550" 5 1 1 150 0 0.967991715613753
"2551" 5 1 1 151 1 0.603366119765677
"2552" 5 1 1 152 1 0.640403517511673
"2553" 5 1 1 153 1 4.62053047040128
"2554" 5 1 1 154 1 0.710593193077948
"2555" 5 1 1 155 1 0.718880204386078
"2556" 5 1 1 156 1 0.919080396373989
"2557" 5 1 1 157 1 1.57167761337943
"2558" 5 1 1 158 1 0.483407423334196
"2559" 5 1 1 159 1 0.611343526668148
"2560" 5 1 1 160 0 1.32963682266907
"2561" 5 1 1 161 1 1.63934593339521
"2562" 5 1 1 162 0 1.10723223362211
"2563" 5 1 1 163 1 0.665830383649794
"2564" 5 1 1 164 1 0.319880024287384
"2565" 5 1 1 165 0 2.1222642528452
"2566" 5 1 1 166 0 1.48269933782192
"2567" 5 1 1 167 1 0.447826278873486
"2568" 5 1 1 168 1 2.41711300505651
"2569" 5 1 1 169 0 1.99089997060527
"2570" 5 1 1 170 1 0.241253162684152
"2571" 5 1 1 171 1 0.537828644628637
"2572" 5 1 1 172 1 1.71911848024675
"2573" 5 1 1 173 1 1.11141770365648
"2574" 5 1 1 174 0 0.444367101601558
"2575" 5 1 1 175 0 1.16902852759021
"2576" 5 1 1 176 1 0.541428433913505
"2577" 5 1 1 177 1 0.470758189679356
"2578" 5 1 1 178 1 1.01181709752209
"2579" 5 1 1 179 1 0.737878565089312
"2580" 5 1 1 180 1 0.29705930231628
"2581" 5 1 1 181 1 2.63724680965883
"2582" 5 1 1 182 1 2.82795274754288
"2583" 5 1 1 183 1 1.47879183096904
"2584" 5 1 1 184 0 0.621931730112759
"2585" 5 1 1 185 1 1.23410406033578
"2586" 5 1 1 186 1 1.21002115215198
"2587" 5 1 1 187 0 0.353182223486481
"2588" 5 1 1 188 1 0.509380804715911
"2589" 5 1 1 189 0 0.456803969685221
"2590" 5 1 1 190 1 1.12255855080858
"2591" 5 1 1 191 0 0.665514727123547
"2592" 5 1 1 192 1 0.510445792718558
"2593" 5 1 1 193 1 0.815737193301553
"2594" 5 1 1 194 0 0.41464784959564
"2595" 5 1 1 195 1 0.941671518506017
"2596" 5 1 1 196 1 0.748311270251637
"2597" 5 1 1 197 0 1.08451682683686
"2598" 5 1 1 198 0 0.400727821588516
"2599" 5 1 1 199 0 0.641302215664182
"2600" 5 1 1 200 0 0.630847854764434
"2601" 5 1 2 1 1 0.834548932811478
"2602" 5 1 2 2 1 0.369906605243683
"2603" 5 1 2 3 1 0.528435002572835
"2604" 5 1 2 4 1 0.410685130921891
"2605" 5 1 2 5 1 0.507305083252955
"2606" 5 1 2 6 1 0.897114549297839
"2607" 5 1 2 7 1 0.389862818355206
"2608" 5 1 2 8 1 0.541134427219164
"2609" 5 1 2 9 1 0.761331240442814
"2610" 5 1 2 10 1 0.84758885099832
"2611" 5 1 2 11 1 0.367600994640728
"2612" 5 1 2 12 1 0.55487231486314
"2613" 5 1 2 13 1 0.428933508871356
"2614" 5 1 2 14 1 0.688763851060066
"2615" 5 1 2 15 1 0.768885811218061
"2616" 5 1 2 16 1 0.847926438206807
"2617" 5 1 2 17 1 1.09058528180514
"2618" 5 1 2 18 1 1.270594444382
"2619" 5 1 2 19 1 0.455582567840116
"2620" 5 1 2 20 1 0.58476102008624
"2621" 5 1 2 21 1 0.819748376293574
"2622" 5 1 2 22 1 0.409312506483169
"2623" 5 1 2 23 1 0.604909123625374
"2624" 5 1 2 24 1 0.784939782622969
"2625" 5 1 2 25 1 0.616003836618504
"2626" 5 1 2 26 1 0.822008435080759
"2627" 5 1 2 27 1 1.06313884443184
"2628" 5 1 2 28 1 0.54904638398136
"2629" 5 1 2 29 1 0.460358675114578
"2630" 5 1 2 30 1 0.606989803717006
"2631" 5 1 2 31 1 0.569701106541092
"2632" 5 1 2 32 1 0.502483536757063
"2633" 5 1 2 33 1 0.716835580624174
"2634" 5 1 2 34 1 0.473809558170848
"2635" 5 1 2 35 1 1.08067912728619
"2636" 5 1 2 36 1 0.455949389802292
"2637" 5 1 2 37 1 0.596481093053939
"2638" 5 1 2 38 1 0.391194258522242
"2639" 5 1 2 39 0 0.358548960270593
"2640" 5 1 2 40 1 0.919753226174042
"2641" 5 1 2 41 1 0.439962476334069
"2642" 5 1 2 42 1 0.595986011933768
"2643" 5 1 2 43 1 0.505754904413596
"2644" 5 1 2 44 0 0.753966239767149
"2645" 5 1 2 45 1 0.414116925543407
"2646" 5 1 2 46 1 0.909415029298281
"2647" 5 1 2 47 1 0.449177135782782
"2648" 5 1 2 48 1 0.424413345632842
"2649" 5 1 2 49 1 0.38003855369729
"2650" 5 1 2 50 1 1.63936853553471
"2651" 5 1 2 51 1 0.420396452937974
"2652" 5 1 2 52 1 0.822966075245524
"2653" 5 1 2 53 0 0.654411718491232
"2654" 5 1 2 54 1 0.656439848118462
"2655" 5 1 2 55 1 1.16514816169324
"2656" 5 1 2 56 1 1.16400881578098
"2657" 5 1 2 57 1 1.09243131500995
"2658" 5 1 2 58 1 0.760195433743764
"2659" 5 1 2 59 1 0.65699577860185
"2660" 5 1 2 60 1 0.842453797020949
"2661" 5 1 2 61 1 0.477054694629973
"2662" 5 1 2 62 1 1.02840467063407
"2663" 5 1 2 63 1 0.893003622925608
"2664" 5 1 2 64 1 0.329579181007808
"2665" 5 1 2 65 1 0.763747361626709
"2666" 5 1 2 66 1 1.42915207902505
"2667" 5 1 2 67 1 1.25533394233231
"2668" 5 1 2 68 1 0.389901364045451
"2669" 5 1 2 69 1 0.653953860395821
"2670" 5 1 2 70 1 0.518801705467515
"2671" 5 1 2 71 1 0.563071003025863
"2672" 5 1 2 72 1 0.625573327127146
"2673" 5 1 2 73 1 0.446661447017454
"2674" 5 1 2 74 1 0.49457864496531
"2675" 5 1 2 75 1 1.40001158226631
"2676" 5 1 2 76 1 1.02219151971769
"2677" 5 1 2 77 1 0.508297512016492
"2678" 5 1 2 78 1 0.887890810466139
"2679" 5 1 2 79 1 0.980766799481818
"2680" 5 1 2 80 1 0.421986929477891
"2681" 5 1 2 81 1 0.898469690164551
"2682" 5 1 2 82 1 0.523914100300521
"2683" 5 1 2 83 1 0.851067044813419
"2684" 5 1 2 84 1 1.00110011789412
"2685" 5 1 2 85 1 0.326814283843152
"2686" 5 1 2 86 1 1.29708809020324
"2687" 5 1 2 87 1 0.54421275505051
"2688" 5 1 2 88 1 0.480934002118884
"2689" 5 1 2 89 1 0.57896105006244
"2690" 5 1 2 90 1 0.699438591868849
"2691" 5 1 2 91 1 0.554352160628885
"2692" 5 1 2 92 1 0.669136400152929
"2693" 5 1 2 93 1 0.75806418714067
"2694" 5 1 2 94 1 0.450537593930261
"2695" 5 1 2 95 1 0.569139882311691
"2696" 5 1 2 96 1 0.934709901141003
"2697" 5 1 2 97 1 0.645728921798058
"2698" 5 1 2 98 1 0.749311230250401
"2699" 5 1 2 99 0 0.526740771309706
"2700" 5 1 2 100 1 0.5378971501044
"2701" 5 1 2 101 1 0.914142194446642
"2702" 5 1 2 102 1 0.39874241146096
"2703" 5 1 2 103 1 1.53486904598144
"2704" 5 1 2 104 1 0.562666897304123
"2705" 5 1 2 105 1 0.691474107288057
"2706" 5 1 2 106 1 0.340510228127474
"2707" 5 1 2 107 1 0.350468302646885
"2708" 5 1 2 108 1 0.674222968411632
"2709" 5 1 2 109 1 0.927661485293415
"2710" 5 1 2 110 1 0.785730687026167
"2711" 5 1 2 111 1 0.383392897725804
"2712" 5 1 2 112 1 0.968837852737168
"2713" 5 1 2 113 1 1.08159165311442
"2714" 5 1 2 114 1 2.90464462087071
"2715" 5 1 2 115 1 0.870600469181547
"2716" 5 1 2 116 1 0.394220212748274
"2717" 5 1 2 117 1 0.550628542479128
"2718" 5 1 2 118 1 0.894687163850991
"2719" 5 1 2 119 1 0.633177238800563
"2720" 5 1 2 120 1 0.396390646921471
"2721" 5 1 2 121 1 0.651175210057292
"2722" 5 1 2 122 1 0.383768874560483
"2723" 5 1 2 123 1 0.955316291897558
"2724" 5 1 2 124 1 0.73493829089147
"2725" 5 1 2 125 1 0.79036055071326
"2726" 5 1 2 126 1 0.403485496731941
"2727" 5 1 2 127 1 0.430042904631002
"2728" 5 1 2 128 1 0.400063130673021
"2729" 5 1 2 129 0 0.657857752515469
"2730" 5 1 2 130 1 0.493334680423373
"2731" 5 1 2 131 1 1.73707987423777
"2732" 5 1 2 132 1 0.720590806224384
"2733" 5 1 2 133 1 0.73943867131602
"2734" 5 1 2 134 1 1.04656896343338
"2735" 5 1 2 135 1 0.438443790239049
"2736" 5 1 2 136 1 0.492968874478247
"2737" 5 1 2 137 1 0.642685314198723
"2738" 5 1 2 138 1 0.967609271844849
"2739" 5 1 2 139 1 0.552338836959796
"2740" 5 1 2 140 1 1.10263744587847
"2741" 5 1 2 141 1 0.409348722825525
"2742" 5 1 2 142 1 0.410964971218025
"2743" 5 1 2 143 1 0.377739881114103
"2744" 5 1 2 144 1 0.505638014344731
"2745" 5 1 2 145 0 0.486942465824541
"2746" 5 1 2 146 1 1.06790378482523
"2747" 5 1 2 147 1 0.584284784560092
"2748" 5 1 2 148 0 0.521828057049075
"2749" 5 1 2 149 1 0.42930311472551
"2750" 5 1 2 150 1 0.773445246048737
"2751" 5 1 2 151 1 1.19405080736359
"2752" 5 1 2 152 1 0.435124096851796
"2753" 5 1 2 153 1 0.348331763746915
"2754" 5 1 2 154 1 0.83782397962804
"2755" 5 1 2 155 1 0.465257316901581
"2756" 5 1 2 156 1 0.905998763621552
"2757" 5 1 2 157 1 0.534004935422679
"2758" 5 1 2 158 1 0.561000015243422
"2759" 5 1 2 159 1 1.36498541494412
"2760" 5 1 2 160 1 1.49702426049486
"2761" 5 1 2 161 1 1.21139936452033
"2762" 5 1 2 162 1 0.532061139717465
"2763" 5 1 2 163 1 0.71557815324585
"2764" 5 1 2 164 1 0.916863362806849
"2765" 5 1 2 165 1 0.527187541767489
"2766" 5 1 2 166 1 0.575669286964228
"2767" 5 1 2 167 1 0.620673582449323
"2768" 5 1 2 168 1 0.496684453366324
"2769" 5 1 2 169 1 0.457741324738832
"2770" 5 1 2 170 1 0.597901265291264
"2771" 5 1 2 171 1 0.719035182517022
"2772" 5 1 2 172 1 1.95600808454864
"2773" 5 1 2 173 1 0.623176097239368
"2774" 5 1 2 174 1 0.650619019293925
"2775" 5 1 2 175 1 1.29458818841493
"2776" 5 1 2 176 1 1.10588839807501
"2777" 5 1 2 177 1 0.447234681853792
"2778" 5 1 2 178 1 0.607739400533494
"2779" 5 1 2 179 1 0.48172039511567
"2780" 5 1 2 180 1 1.38114946528664
"2781" 5 1 2 181 1 0.743808473471785
"2782" 5 1 2 182 1 0.774755709567806
"2783" 5 1 2 183 1 1.00457032277808
"2784" 5 1 2 184 1 1.27749380391394
"2785" 5 1 2 185 1 0.409448650284205
"2786" 5 1 2 186 1 0.5073223691741
"2787" 5 1 2 187 1 1.05593897713209
"2788" 5 1 2 188 1 0.408034942438593
"2789" 5 1 2 189 1 0.64340591631108
"2790" 5 1 2 190 1 0.369531044638716
"2791" 5 1 2 191 1 0.55260311130411
"2792" 5 1 2 192 1 0.707602582284715
"2793" 5 1 2 193 1 1.20796160112973
"2794" 5 1 2 194 1 0.709283761851257
"2795" 5 1 2 195 1 0.430445459090406
"2796" 5 1 2 196 1 1.21586731209024
"2797" 5 1 2 197 1 0.487325733755715
"2798" 5 1 2 198 1 0.543590187316528
"2799" 5 1 2 199 1 0.866539875179296
"2800" 5 1 2 200 1 0.492557142150123
"2801" 5 1 3 1 1 1.75964713087422
"2802" 5 1 3 2 1 0.33610639693425
"2803" 5 1 3 3 1 0.563601715726312
"2804" 5 1 3 4 1 1.43443876926135
